person_id,label,timestamp,flex1,flex2,flex3,flex4,flex5,ax,ay,az,gx,gy,gz
P1,A,489602,0.9998,0.9970,1.0000,0.9977,0.9756,-2.4435,-9.1226,-3.1794,0.0133,-0.0610,-0.0195
P1,A,489622,0.9982,1.0000,1.0000,1.0000,0.9774,-2.3232,-9.1280,-3.1405,0.0160,-0.0147,-0.0021
P1,A,489642,0.9941,0.9948,1.0000,0.9980,0.9500,-2.2334,-9.1250,-3.2075,0.0068,-0.0504,-0.0085
P1,A,489662,0.9941,0.9931,0.9856,0.9942,1.0000,-2.4088,-9.0723,-3.1584,0.0088,-0.0410,-0.0128
P1,A,489682,0.9933,0.9948,0.9929,0.9938,1.0000,-2.3214,-9.0819,-3.1279,0.0085,-0.0266,0.0007
P1,A,489702,0.9952,0.9953,1.0000,0.9794,0.9869,-2.2968,-9.1580,-3.1495,0.0120,-0.0357,-0.0028
P1,A,489722,0.9952,0.9940,0.9925,1.0000,0.9352,-2.3322,-9.1274,-3.1710,0.0145,-0.0316,-0.0079
P1,A,489742,0.9960,0.9983,1.0000,0.9848,0.9848,-2.3519,-9.1226,-3.1213,0.0127,-0.0276,-0.0008
P1,A,489762,0.9952,0.9944,0.9934,0.9949,0.9708,-2.2956,-9.1723,-3.1920,-0.0020,-0.0302,-0.0007
P1,A,489782,0.9952,0.9957,0.9994,0.9926,1.0000,-2.4166,-9.1089,-3.1423,0.0037,-0.0211,0.0043
P1,A,489802,0.9960,0.9944,0.9811,0.9961,1.0000,-2.2202,-9.0430,-3.1249,0.0044,-0.0048,0.0084
P1,A,489822,0.9960,0.9944,0.9943,0.9918,0.9878,-2.2789,-9.2035,-3.1351,0.0140,-0.0482,-0.0077
P1,A,489842,0.9956,0.9944,0.9678,0.9670,0.9869,-2.3052,-9.0789,-3.0321,0.0011,-0.0444,-0.0091
P1,A,489862,0.9948,0.9948,1.0000,0.9914,1.0000,-2.3202,-9.1172,-3.0578,0.0238,-0.0374,-0.0129
P1,A,489882,0.9960,0.9935,0.9843,0.9537,0.9830,-2.3459,-9.1382,-3.1261,0.0209,-0.0265,-0.0099
P1,A,489902,0.9948,0.9948,0.9975,0.9953,0.9643,-2.3381,-9.1604,-3.1854,0.0175,-0.0262,-0.0048
P1,A,489922,0.9937,0.9927,0.9934,0.9934,1.0000,-2.3543,-9.0843,-3.1614,0.0051,-0.0197,0.0047
P1,A,489942,0.9952,0.9940,1.0000,0.9949,0.9691,-2.3705,-9.1574,-3.1405,0.0145,-0.0185,0.0105
P1,A,489962,0.9944,0.9979,0.9971,0.9907,1.0000,-2.2759,-9.0687,-3.0878,0.0007,-0.0123,0.0079
P1,A,489982,0.9910,0.9914,1.0000,0.9798,0.9822,-2.3938,-9.1825,-3.1369,0.0201,-0.0052,0.0113
P1,A,490002,0.9937,0.9861,0.9957,0.9965,0.9469,-2.4998,-9.1202,-3.1297,0.0095,0.0454,0.0345
P1,A,490022,0.9963,0.9935,1.0000,0.9984,0.9739,-1.9555,-9.1310,-3.0477,0.0269,0.0574,0.0328
P1,A,490042,0.9944,0.9944,1.0000,0.9763,1.0000,-2.1669,-9.1071,-3.0932,0.0211,-0.0821,-0.0342
P1,A,490062,0.9956,0.9931,1.0000,0.9914,0.9635,-2.5028,-9.1681,-3.1375,0.0452,-0.0497,-0.0293
P1,A,490082,0.9929,0.9931,0.9966,0.9681,0.9843,-2.3357,-9.1849,-3.2201,0.0272,-0.0009,0.0017
P1,A,490102,0.9910,0.9957,0.9911,1.0000,0.9482,-2.2872,-9.1107,-3.1710,0.0072,-0.0384,-0.0015
P1,A,490122,0.9952,0.9944,0.9943,1.0000,0.9322,-2.3507,-9.0640,-3.2045,-0.0057,-0.0702,-0.0184
P1,A,490142,0.9944,0.9927,0.9875,0.9977,0.9774,-2.4118,-9.0035,-3.1405,0.0057,-0.0553,-0.0099
P1,A,490162,0.9944,0.9944,0.9984,1.0000,0.9604,-2.2280,-9.1849,-3.1159,0.0208,-0.0605,-0.0147
P1,A,490182,0.9902,0.9948,0.9929,1.0000,0.9526,-2.2831,-9.1454,-3.1393,0.0137,-0.0773,-0.0353
P1,A,490202,0.9922,0.9935,1.0000,0.9860,1.0000,-2.4435,-9.1310,-3.1830,0.0234,-0.0394,-0.0165
P1,A,490222,0.9941,0.9935,0.9783,0.9949,1.0000,-2.2825,-9.1208,-3.1944,0.0253,0.0120,0.0093
P1,A,490242,0.9944,0.9914,0.9870,0.9930,1.0000,-2.2705,-9.0801,-3.1962,0.0340,-0.0091,0.0011
P1,A,490262,0.9918,0.9948,0.9884,0.9945,1.0000,-2.3639,-9.0520,-3.2081,0.0308,-0.0234,-0.0093
P1,A,490282,0.9941,0.9927,0.9920,1.0000,0.9613,-2.3417,-9.1430,-3.1944,0.0163,-0.0232,0.0007
P1,A,490302,0.9933,0.9905,0.9756,0.9899,0.9839,-2.3136,-9.1627,-3.1716,0.0092,-0.0405,-0.0073
P1,A,490322,0.9933,0.9918,0.9929,1.0000,0.9417,-2.4058,-9.1029,-3.2213,0.0008,-0.0489,-0.0089
P1,A,536302,0.9404,0.9414,0.9619,0.8865,0.0522,-1.0113,-9.3154,-3.2662,-0.0028,-0.0418,0.0020
P1,A,536322,0.9415,0.9427,0.9756,0.8982,0.0000,-1.0837,-9.2663,-3.2399,0.0075,-0.0333,-0.0145
P1,A,536362,0.9423,0.9436,0.9646,0.8916,0.0135,-1.2221,-9.3549,-3.1985,-0.0024,-0.0492,-0.0270
P1,A,536382,0.9396,0.9414,0.9628,0.9024,0.0705,-1.3532,-9.3591,-3.1830,-0.0149,-0.0380,-0.0184
P1,A,536402,0.9412,0.9427,0.9614,0.8873,0.0527,-1.2640,-9.3047,-3.1057,-0.0052,-0.0400,0.0052
P1,A,536422,0.9404,0.9419,0.9399,0.8826,0.0109,-1.2041,-9.3238,-3.0710,0.0133,-0.0441,0.0104
P1,A,536442,0.9358,0.9384,0.9641,0.8935,0.0000,-1.1304,-9.3711,-3.1387,0.0208,-0.0498,0.0017
P1,A,536462,0.9389,0.9432,0.9641,0.9079,0.0600,-1.1520,-9.3549,-3.2033,0.0108,-0.0570,-0.0032
P1,A,536482,0.9400,0.9401,0.9829,0.8869,0.0131,-1.0837,-9.2544,-3.1914,0.0124,-0.0541,-0.0083
P1,A,536502,0.9396,0.9406,0.9628,0.8881,0.0553,-1.1712,-9.3567,-3.2369,0.0148,-0.0592,-0.0105
P1,A,536522,0.9404,0.9414,0.9669,0.9094,0.0461,-1.1783,-9.3484,-3.2081,0.0132,-0.0340,-0.0056
P1,A,536542,0.9393,0.9388,0.9788,0.8896,0.0370,-1.0616,-9.3436,-3.1842,0.0143,-0.0230,-0.0009
P1,A,536562,0.9396,0.9388,0.9605,0.8869,0.0000,-1.0670,-9.3424,-3.2111,-0.0011,-0.0450,-0.0101
P1,A,536582,0.9404,0.9414,0.9623,0.8896,0.0000,-1.1987,-9.2657,-3.1854,0.0027,-0.0396,-0.0144
P1,A,536602,0.9393,0.9419,0.9637,0.8958,0.0144,-1.1478,-9.3094,-3.1788,0.0172,-0.0272,-0.0147
P1,A,536622,0.9404,0.9410,0.9605,0.8892,0.0131,-1.1879,-9.3412,-3.1584,0.0192,-0.0298,-0.0097
P1,A,536642,0.9362,0.9414,0.9404,0.8955,0.0000,-1.1586,-9.3597,-3.1991,0.0139,-0.0222,-0.0071
P1,A,536662,0.9408,0.9427,0.9596,0.8916,0.0000,-1.1616,-9.2999,-3.1842,0.0075,-0.0157,-0.0031
P1,A,536682,0.9381,0.9423,0.9651,0.8721,0.0018,-1.1999,-9.2568,-3.1650,0.0177,-0.0256,-0.0037
P1,A,536702,0.9400,0.9401,0.9577,0.8888,0.0266,-1.1837,-9.3166,-3.1812,0.0257,-0.0188,-0.0067
P1,A,536722,0.9408,0.9406,0.9801,0.8896,0.0000,-1.2251,-9.3993,-3.2183,0.0172,-0.0242,-0.0047
P1,A,536742,0.9396,0.9427,0.9641,0.8853,0.0157,-1.2131,-9.2993,-3.1991,0.0009,-0.0208,0.0003
P1,A,536762,0.9393,0.9432,0.9692,0.9001,0.0483,-1.1203,-9.2927,-3.1884,0.0041,-0.0348,-0.0057
P1,A,536782,0.9396,0.9249,0.9582,0.8982,0.0000,-1.1310,-9.2747,-3.1896,0.0161,-0.0695,-0.0167
P1,A,536802,0.9419,0.9436,0.9490,0.8686,0.0431,-1.2358,-9.3891,-3.2524,0.0057,-0.0526,-0.0109
P1,A,536822,0.9370,0.9419,0.9577,0.8702,0.0000,-1.1400,-9.2831,-3.1608,-0.0119,-0.0294,-0.0023
P1,A,536842,0.9415,0.9427,0.9733,0.8881,0.0457,-1.1071,-9.2945,-3.1602,0.0076,-0.0420,-0.0075
P1,A,536862,0.9400,0.9445,0.9769,0.8628,0.0000,-1.1993,-9.2837,-3.1764,0.0189,-0.0541,-0.0155
P1,A,536882,0.9400,0.9410,0.9564,0.8955,0.0014,-1.2825,-9.3484,-3.2441,0.0246,-0.0140,-0.0053
P1,A,536902,0.9389,0.9393,0.9559,0.8978,0.0179,-1.1454,-9.3047,-3.2554,-0.0035,-0.0048,0.0083
P1,A,536922,0.9400,0.9379,0.9596,0.8912,0.0000,-1.1478,-9.2807,-3.2081,-0.0023,-0.0453,-0.0035
P1,A,536942,0.9408,0.9393,0.9609,0.8989,0.0000,-1.1664,-9.3047,-3.1788,0.0053,-0.0509,-0.0113
P1,A,536962,0.9400,0.9384,0.9381,0.9176,0.0457,-1.2406,-9.3172,-3.1465,0.0104,-0.0285,-0.0021
P1,A,536982,0.9381,0.9397,0.9577,0.8970,0.0000,-1.0885,-9.3633,-3.1483,0.0059,-0.0088,0.0075
P1,A,537002,0.9396,0.9393,0.9614,0.8951,0.0522,-1.1071,-9.3358,-3.1770,0.0023,-0.0314,-0.0009
P1,A,537022,0.9404,0.9406,0.9513,0.8904,0.0392,-1.0873,-9.2669,-3.1423,0.0164,-0.0332,-0.0091
P1,A,537042,0.9389,0.9401,0.9641,0.8935,0.0479,-1.1610,-9.3957,-3.1932,0.0224,-0.0350,-0.0199
P1,A,537062,0.9366,0.9393,0.9628,0.8989,0.0157,-1.1640,-9.3082,-3.1536,0.0063,-0.0313,-0.0175
P1,A,537082,0.9389,0.9388,0.9596,0.9114,0.0670,-1.2143,-9.3394,-3.1979,0.0121,-0.0324,-0.0124
P1,A,537102,0.9396,0.9414,0.9564,0.8791,0.0083,-1.2173,-9.2436,-3.2117,0.0124,-0.0290,-0.0072
P1,A,537122,0.9400,0.9401,0.9573,0.9063,0.0540,-1.2316,-9.3537,-3.2447,0.0113,-0.0329,-0.0051
P1,A,537142,0.9389,0.9393,0.9596,0.8815,0.0948,-1.1706,-9.3292,-3.1866,0.0023,-0.0369,-0.0088
P1,A,537162,0.9415,0.9384,0.9664,0.9114,0.0444,-1.1676,-9.3424,-3.1590,-0.0004,-0.0425,-0.0091
P1,A,537182,0.9404,0.9410,0.9619,0.9079,0.0409,-1.2544,-9.2993,-3.1363,0.0001,-0.0364,-0.0065
P1,A,537202,0.9385,0.9401,0.9637,0.9009,0.0583,-1.1778,-9.3148,-3.1327,0.0213,-0.0137,-0.0024
P1,A,537222,0.9389,0.9423,0.9426,0.9094,0.0513,-1.0939,-9.3196,-3.1794,0.0233,-0.0497,-0.0080
P1,A,537242,0.9393,0.9401,0.9586,0.9044,0.0974,-1.2143,-9.3220,-3.1662,0.0117,-0.0626,-0.0180
P1,A,537262,0.9354,0.9419,0.9792,0.8970,0.0118,-1.2574,-9.3346,-3.1704,0.0117,-0.0386,-0.0080
P1,A,537282,0.9415,0.9371,0.9623,0.8970,0.0618,-1.1754,-9.3053,-3.2033,0.0037,-0.0382,-0.0036
P1,A,537302,0.9393,0.9401,0.9605,0.8570,0.0605,-1.1981,-9.2520,-3.1818,0.0085,-0.0570,-0.0144
P1,A,537322,0.9385,0.9388,0.9619,0.9021,0.0557,-1.2562,-9.3693,-3.1758,0.0226,-0.0592,-0.0123
P1,A,537342,0.9385,0.9393,0.9637,0.9106,0.0444,-1.1676,-9.3304,-3.2033,0.0101,-0.0534,-0.0065
P1,A,537362,0.9358,0.9410,0.9646,0.8974,0.0248,-1.1801,-9.3274,-3.1698,0.0137,-0.0466,-0.0051
P1,A,537382,0.9408,0.9410,0.9605,0.9024,0.0605,-1.1748,-9.2945,-3.1626,0.0101,-0.0197,0.0027
P1,A,537402,0.9393,0.9401,0.9632,0.9013,0.0787,-1.1281,-9.2358,-3.1506,0.0200,-0.0237,0.0007
P1,A,537422,0.9385,0.9388,1.0000,0.8955,0.0000,-1.1754,-9.3244,-3.2375,0.0337,-0.0374,-0.0143
P1,A,537442,0.9404,0.9401,0.9550,0.8772,0.0748,-1.2406,-9.3627,-3.2967,0.0113,-0.0374,-0.0145
P1,A,537462,0.9400,0.9410,0.9541,0.9040,0.0600,-1.2442,-9.3226,-3.2961,-0.0089,-0.0265,-0.0001
P1,A,537482,0.9389,0.9414,0.9673,0.8900,0.0457,-1.2316,-9.2777,-3.1818,-0.0073,-0.0148,0.0029
P1,A,537502,0.9419,0.9401,0.9596,0.8966,0.1057,-1.1221,-9.3418,-3.1261,0.0077,-0.0298,0.0033
P1,A,537522,0.9377,0.9388,0.9619,0.8908,0.1148,-1.1376,-9.3094,-3.1297,0.0121,-0.0445,-0.0100
P1,A,537542,0.9393,0.9397,0.9605,0.9063,0.0905,-1.1754,-9.3334,-3.1279,0.0208,-0.0306,-0.0088
P1,A,537562,0.9381,0.9388,0.9577,0.8857,0.0000,-1.1616,-9.3891,-3.1650,0.0169,-0.0200,-0.0107
P1,A,537582,0.9396,0.9379,0.9527,0.8896,0.0018,-1.1616,-9.3466,-3.1596,0.0104,-0.0329,-0.0120
P1,A,537602,0.9408,0.9393,0.9591,0.9110,0.0900,-1.2346,-9.2897,-3.1938,0.0215,-0.0462,-0.0152
P1,A,537622,0.9393,0.9406,0.9591,0.8772,0.0118,-1.2586,-9.3023,-3.1728,0.0297,-0.0318,-0.0087
P1,A,537642,0.9404,0.9353,0.9605,0.8764,0.0640,-1.2478,-9.3466,-3.2111,0.0294,-0.0304,-0.0071
P1,A,537662,0.9385,0.9393,0.9692,0.9028,0.0000,-1.1855,-9.3508,-3.2153,0.0101,-0.0381,-0.0052
P1,A,537682,0.9431,0.9397,0.9605,0.8923,0.0135,-1.2101,-9.3058,-3.2177,0.0091,-0.0485,-0.0048
P1,A,537702,0.9396,0.9306,0.9440,0.8853,0.0000,-1.1628,-9.3058,-3.1997,0.0083,-0.0393,-0.0033
P1,A,537722,0.9377,0.9406,0.9815,0.9036,0.0757,-1.1754,-9.3082,-3.2093,0.0011,-0.0502,-0.0068
P1,A,537742,0.9404,0.9384,0.9632,0.8892,0.0496,-1.2077,-9.3029,-3.2219,0.0075,-0.0344,-0.0035
P1,A,537762,0.9393,0.9379,0.9436,0.9044,0.0000,-1.1299,-9.2729,-3.1548,0.0127,-0.0250,-0.0029
P1,A,537782,0.9240,0.9388,0.9596,0.8877,0.0000,-1.1233,-9.3496,-3.1956,0.0220,-0.0394,-0.0133
P1,A,537802,0.9389,0.9254,0.9628,0.8943,0.0557,-1.2514,-9.3418,-3.2225,0.0113,-0.0422,-0.0143
P1,A,537822,0.9374,0.9379,0.9527,0.8791,0.0000,-1.2646,-9.3100,-3.1794,0.0067,-0.0229,-0.0085
P1,A,537842,0.9408,0.9384,0.9554,0.8842,0.0000,-1.1682,-9.3035,-3.1806,0.0168,-0.0314,-0.0095
P1,A,537862,0.9389,0.9384,0.9605,0.8904,0.0653,-1.2448,-9.3268,-3.1866,0.0137,-0.0637,-0.0160
P1,A,537882,0.9389,0.9397,0.9532,0.8912,0.0000,-1.2981,-9.3496,-3.1920,0.0029,-0.0537,-0.0087
P1,A,537902,0.9370,0.9401,0.9623,0.9005,0.0000,-1.1855,-9.2388,-3.1447,0.0007,-0.0390,-0.0017
P1,A,537922,0.9396,0.9393,0.9477,0.8822,0.0222,-1.2017,-9.3759,-3.1429,0.0047,-0.0554,-0.0045
P1,A,537942,0.9343,0.9401,0.9568,0.8986,0.0000,-1.2418,-9.2789,-3.1267,0.0095,-0.0590,-0.0092
P1,A,537962,0.9404,0.9397,0.9619,0.8923,0.0818,-1.2430,-9.2987,-3.1459,0.0240,-0.0340,-0.0009
P1,A,537982,0.9385,0.9397,0.9788,0.8920,0.0087,-1.1760,-9.3484,-3.2321,0.0226,-0.0224,0.0027
P1,A,538002,0.9381,0.9349,0.9591,0.8947,0.0000,-1.1664,-9.3370,-3.2967,0.0068,-0.0462,-0.0020
P1,A,538022,0.9374,0.9401,0.9568,0.8888,0.0000,-1.2310,-9.2699,-3.2878,-0.0039,-0.0457,-0.0024
P1,A,538042,0.9354,0.9371,0.9577,0.9009,0.0000,-1.1873,-9.2939,-3.2105,0.0009,-0.0332,0.0033
P1,A,538062,0.9381,0.9379,0.9669,0.9048,0.0161,-1.1107,-9.3418,-3.1968,0.0065,-0.0330,0.0043
P1,A,538082,0.9339,0.9388,0.9605,0.9145,0.0474,-1.0808,-9.3011,-3.1632,-0.0004,-0.0274,-0.0008
P1,A,538102,0.9385,0.9466,0.9596,0.8834,0.0000,-1.0556,-9.3244,-3.1704,0.0127,-0.0272,-0.0181
P1,A,538122,0.9324,0.9440,0.9609,0.8916,0.0000,-1.2083,-9.3262,-3.1279,0.0096,-0.0270,-0.0192
P1,A,538142,0.9385,0.9388,0.9586,0.8931,0.0000,-1.2724,-9.3310,-3.1453,0.0092,-0.0269,-0.0103
P1,A,538162,0.9381,0.9375,0.9559,0.9001,0.0000,-1.2664,-9.3567,-3.1818,0.0188,-0.0381,-0.0073
P1,A,538182,0.9385,0.9419,0.9582,0.9079,0.0527,-1.2724,-9.3190,-3.1626,0.0161,-0.0353,-0.0053
P1,A,538202,0.9423,0.9384,0.9605,0.9176,0.0157,-1.2508,-9.2771,-3.2003,0.0201,-0.0344,-0.0008
P1,A,538222,0.9389,0.9388,0.9559,0.8815,0.0000,-1.2556,-9.3352,-3.2351,0.0156,-0.0494,-0.0009
P1,A,538242,0.9381,0.9388,0.9568,0.8578,0.0579,-1.2556,-9.3100,-3.2201,0.0096,-0.0490,0.0037
P1,A,538262,0.9404,0.9375,0.9513,0.9036,0.0000,-1.2131,-9.3406,-3.1890,0.0183,-0.0477,0.0072
P1,A,538282,0.9377,0.9375,0.9582,0.9024,0.0000,-1.1652,-9.3118,-3.1818,0.0032,-0.0322,0.0164
P1,A,538302,0.9381,0.9414,0.9600,0.9067,0.0427,-1.1251,-9.3118,-3.1566,0.0080,-0.0253,0.0195
P1,A,538322,0.9259,0.9397,0.9623,0.8989,0.0505,-1.0239,-9.2621,-3.1506,0.0175,-0.0410,0.0043
P1,A,538342,0.9385,0.9379,0.9513,0.8888,0.0000,-1.1544,-9.3112,-3.1920,0.0246,-0.0604,-0.0168
P1,A,538362,0.9393,0.9406,0.9486,0.8993,0.0787,-1.1813,-9.3154,-3.2159,0.0204,-0.0338,-0.0096
P1,A,538382,0.9385,0.9440,0.9586,0.9238,0.0174,-1.1688,-9.3789,-3.2578,0.0068,-0.0264,-0.0015
P1,A,538402,0.9393,0.9388,0.9568,0.9021,0.0000,-1.1586,-9.2651,-3.2027,-0.0001,-0.0317,-0.0036
P1,A,538422,0.9377,0.9397,0.9591,0.8947,0.0422,-1.1957,-9.2777,-3.1884,0.0144,-0.0506,-0.0125
P1,A,538442,0.9381,0.9414,0.9669,0.9032,0.0783,-1.2562,-9.3256,-3.1896,0.0205,-0.0476,-0.0087
P1,A,538462,0.9377,0.9397,0.9541,0.8830,0.0179,-1.2077,-9.3382,-3.1872,-0.0119,-0.0258,0.0051
P1,A,538482,0.9385,0.9406,0.9564,0.8815,0.0161,-1.1203,-9.2945,-3.1249,-0.0075,-0.0389,-0.0029
P1,A,538502,0.9351,0.9384,0.9609,0.9059,0.0531,-1.2951,-9.3058,-3.1411,0.0128,-0.0430,-0.0108
P1,A,538522,0.9358,0.9362,0.9600,0.8752,0.0092,-1.2879,-9.3196,-3.1692,0.0258,-0.0092,0.0079
P1,A,538542,0.9370,0.9371,0.9536,0.8892,0.0800,-1.1233,-9.3130,-3.1824,0.0129,-0.0116,0.0121
P1,A,538562,0.9480,0.9388,0.9600,0.8772,0.0666,-1.1598,-9.3717,-3.2500,0.0080,-0.0604,-0.0037
P1,A,538582,0.9339,0.9401,0.9605,0.8912,0.1087,-1.2664,-9.3005,-3.2033,0.0001,-0.0445,0.0051
P1,A,538602,0.9393,0.9358,0.9582,0.9032,0.0114,-1.1215,-9.3130,-3.1572,0.0152,-0.0313,0.0068
P1,A,538622,0.9389,0.9388,0.9559,0.8873,0.0670,-1.0712,-9.3352,-3.1818,0.0183,-0.0440,0.0001
P1,A,538642,0.9374,0.9353,0.9554,0.8818,0.0209,-1.1640,-9.2951,-3.1614,0.0124,-0.0384,-0.0015
P1,A,538662,0.9374,0.9375,0.9545,0.8943,0.0622,-1.0574,-9.3082,-3.1668,0.0177,-0.0071,-0.0021
P1,A,538682,0.9377,0.9388,0.9673,0.8857,0.0057,-1.0580,-9.3621,-3.1692,0.0120,-0.0482,-0.0161
P1,A,538702,0.9389,0.9375,0.9500,0.8927,0.0605,-1.2209,-9.3532,-3.1991,0.0069,-0.0560,-0.0187
P1,A,538722,0.9339,0.9388,0.9582,0.8818,0.0844,-1.2502,-9.2933,-3.1776,0.0091,-0.0282,-0.0129
P1,A,538742,0.9366,0.9393,0.9358,0.8881,0.0953,-1.2484,-9.3502,-3.2195,0.0125,-0.0201,-0.0023
P1,A,538762,0.9374,0.9393,0.9559,0.8616,0.0040,-1.1670,-9.2490,-3.1650,0.0156,-0.0292,-0.0031
P1,A,538782,0.9370,0.9366,0.9463,0.8974,0.0718,-1.1562,-9.3603,-3.1979,0.0041,-0.0549,-0.0068
P1,A,538802,0.9347,0.9432,0.9564,0.8842,0.0000,-1.2628,-9.3076,-3.1740,0.0117,-0.0590,-0.0077
P1,A,538822,0.9381,0.9388,0.9619,0.8900,0.0640,-1.2388,-9.3526,-3.1716,0.0147,-0.0216,0.0075
P1,A,538842,0.9343,0.9384,0.9609,0.8803,0.0157,-1.1017,-9.3011,-3.1572,0.0103,-0.0302,0.0059
P1,A,538862,0.9438,0.9384,0.9600,0.8912,0.0648,-1.2011,-9.3472,-3.2243,0.0191,-0.0576,-0.0071
P1,A,538882,0.9354,0.9362,0.9632,0.8616,0.0000,-1.2221,-9.2627,-3.1997,0.0144,-0.0365,-0.0003
P1,A,538902,0.9374,0.9397,0.9573,0.8896,0.0535,-1.1239,-9.3382,-3.2237,0.0104,-0.0224,0.0095
P1,A,538922,0.9396,0.9371,0.9568,0.8904,0.0018,-1.1137,-9.3328,-3.2423,0.0016,-0.0477,-0.0015
P1,A,538942,0.9335,0.9414,0.9614,0.9040,0.0492,-1.2095,-9.2717,-3.1716,0.0037,-0.0502,-0.0043
P1,A,538962,0.9377,0.9375,0.9586,0.8826,0.0227,-1.1730,-9.3436,-3.1644,0.0151,-0.0306,-0.0012
P1,A,538982,0.9377,0.9393,0.9550,0.8966,0.0953,-1.0963,-9.3214,-3.1518,0.0181,-0.0446,-0.0073
P1,A,539002,0.9374,0.9362,0.9472,0.8807,0.0127,-1.2418,-9.3478,-3.1794,-0.0009,-0.0456,-0.0037
P1,A,539022,0.9343,0.9353,0.9221,0.8830,0.0000,-1.1915,-9.3118,-3.1926,0.0004,-0.0245,0.0048
P1,A,539042,0.9370,0.9349,0.9591,0.8698,0.0000,-1.1598,-9.3011,-3.1291,0.0068,-0.0297,0.0031
P1,A,539062,0.9385,0.9384,0.9568,0.8885,0.0000,-1.1766,-9.3292,-3.1351,0.0125,-0.0410,0.0017
P1,A,539082,0.9377,0.9379,0.9600,0.9005,0.0000,-1.1903,-9.3609,-3.2027,0.0109,-0.0368,0.0007
P1,A,539102,0.9370,0.9375,0.9600,0.8888,0.0118,-1.1382,-9.3352,-3.2339,0.0009,-0.0301,0.0033
P1,A,539122,0.9385,0.9393,0.9564,0.8947,0.0000,-1.1580,-9.3238,-3.1698,0.0028,-0.0450,-0.0009
P1,A,539142,0.9377,0.9353,0.9582,0.8939,0.0000,-1.1568,-9.3609,-3.1548,0.0011,-0.0401,0.0000
P1,A,539162,0.9385,0.9353,0.9541,0.8896,0.0792,-1.1029,-9.3130,-3.1536,0.0067,-0.0381,0.0065
P1,A,539182,0.9358,0.9371,0.9554,0.8780,0.0000,-1.0682,-9.3466,-3.1590,0.0107,-0.0462,-0.0029
P1,A,539202,0.9381,0.9371,0.9623,0.8947,0.0422,-1.1670,-9.3160,-3.1405,0.0107,-0.0481,-0.0081
P1,A,539222,0.9366,0.9379,0.9381,0.8857,0.0000,-1.1472,-9.3382,-3.1979,0.0137,-0.0292,-0.0056
P1,A,539242,0.9358,0.9362,0.9399,0.8795,0.0000,-1.1376,-9.2819,-3.1824,0.0191,-0.0370,-0.0076
P1,A,539262,0.9324,0.9388,0.9550,0.8904,0.0000,-1.1831,-9.3436,-3.2099,0.0135,-0.0506,-0.0119
P1,A,539282,0.9374,0.9388,0.9573,0.8885,0.0192,-1.2807,-9.3005,-3.2752,0.0109,-0.0377,-0.0075
P1,A,539302,0.9434,0.9384,0.9518,0.8935,0.0000,-1.1760,-9.3100,-3.2309,0.0108,-0.0370,-0.0009
P1,A,539322,0.9347,0.9371,0.9577,0.8939,0.0083,-1.1484,-9.3400,-3.1620,0.0072,-0.0544,-0.0020
P1,A,539342,0.9381,0.9362,0.9573,0.8873,0.0022,-1.1801,-9.4208,-3.2003,-0.0107,-0.0461,0.0053
P1,A,539362,0.9347,0.9366,0.9509,0.8834,0.0418,-1.0323,-9.3226,-3.0824,0.0011,-0.0277,0.0076
P1,A,539382,0.9362,0.9375,0.9792,0.8955,0.0818,-1.0317,-9.3537,-3.1069,0.0131,-0.0412,-0.0003
P1,A,539402,0.9358,0.9388,0.9472,0.8706,0.0000,-1.0754,-9.3280,-3.1165,0.0140,-0.0448,-0.0101
P1,A,539422,0.9370,0.9379,0.9586,0.9028,0.0000,-1.1161,-9.3172,-3.1518,0.0183,-0.0282,-0.0124
P1,A,539442,0.9366,0.9375,0.9573,0.9129,0.0757,-1.1526,-9.2669,-3.1842,0.0257,-0.0349,-0.0135
P1,A,539462,0.9347,0.9414,0.9550,0.8873,0.0000,-1.2095,-9.2795,-3.2524,0.0273,-0.0304,-0.0121
P1,A,539482,0.9324,0.9345,0.9632,0.8885,0.0418,-1.2155,-9.4082,-3.2914,0.0201,-0.0216,-0.0036
P1,A,539502,0.9400,0.9379,0.9495,0.9040,0.0000,-1.1436,-9.2867,-3.2183,-0.0100,-0.0245,-0.0039
P1,A,539522,0.9370,0.9375,0.9586,0.9059,0.0761,-1.0927,-9.2867,-3.1530,0.0049,-0.0393,-0.0115
P1,A,539542,0.9347,0.9379,0.9545,0.8947,0.0505,-1.1221,-9.3328,-3.1153,0.0109,-0.0428,-0.0199
P1,A,539562,0.9374,0.9375,0.9564,0.8698,0.0079,-1.1933,-9.3633,-3.1315,0.0053,-0.0332,-0.0124
P1,A,539582,0.9370,0.9349,0.9536,0.8943,0.0583,-1.1658,-9.3699,-3.1285,-0.0011,-0.0184,-0.0053
P1,A,539602,0.9370,0.9362,0.9586,0.8986,0.0422,-1.2089,-9.2442,-3.1518,0.0076,-0.0181,-0.0045
P1,A,539622,0.9377,0.9375,0.9573,0.8846,0.0370,-1.1724,-9.2615,-3.2225,0.0276,-0.0208,-0.0044
P1,A,539642,0.9339,0.9471,0.9518,0.9199,0.0544,-1.2095,-9.3442,-3.2680,0.0252,-0.0386,-0.0089
P1,A,539662,0.9358,0.9362,0.9550,0.9036,0.0635,-1.2340,-9.3316,-3.2512,-0.0068,-0.0329,-0.0044
P1,A,539682,0.9335,0.9384,0.9701,0.8853,0.0000,-1.1400,-9.2921,-3.2033,-0.0107,-0.0254,-0.0015
P1,A,539702,0.9313,0.9301,0.9472,0.9021,0.0883,-1.1490,-9.2861,-3.1459,0.0009,-0.0393,-0.0045
P1,A,539722,0.9309,0.9393,0.9586,0.8815,0.0600,-1.1903,-9.3250,-3.1542,0.0211,-0.0269,-0.0080
P1,A,539742,0.9358,0.9358,0.9619,0.8951,0.1013,-1.1035,-9.3520,-3.2057,0.0184,-0.0108,-0.0025
P1,A,539762,0.9339,0.9362,0.9536,0.8951,0.0474,-1.0760,-9.3478,-3.1872,0.0067,-0.0292,-0.0088
P1,A,539782,0.9354,0.9366,0.9564,0.8877,0.0853,-1.1580,-9.3412,-3.2123,-0.0157,-0.0321,-0.0053
P1,A,539802,0.9358,0.9458,0.9596,0.8752,0.0209,-1.1562,-9.2801,-3.1776,-0.0080,-0.0151,-0.0020
P1,A,539822,0.9301,0.9371,0.9719,0.8811,0.0666,-1.0754,-9.3112,-3.1393,0.0143,-0.0184,-0.0181
P1,A,539842,0.9320,0.9366,0.9573,0.9009,0.0244,-1.1269,-9.3753,-3.1219,0.0107,-0.0390,-0.0262
P1,A,539862,0.9335,0.9371,0.9637,0.8935,0.0231,-1.2807,-9.3208,-3.1339,-0.0072,-0.0320,-0.0196
P1,A,539882,0.9339,0.9388,0.9582,0.8865,0.0744,-1.2364,-9.3011,-3.1147,-0.0008,-0.0207,-0.0137
P1,A,539902,0.9320,0.9384,0.9527,0.8943,0.0492,-1.2652,-9.3316,-3.1321,0.0133,-0.0428,-0.0121
P1,A,539922,0.9309,0.9375,0.9573,0.9001,0.0870,-1.2897,-9.3382,-3.1303,0.0345,-0.0448,-0.0027
P1,A,539942,0.9419,0.9388,0.9445,0.9079,0.0479,-1.1610,-9.4040,-3.1848,0.0167,-0.0268,0.0071
P1,A,539962,0.9309,0.9371,0.9568,0.8939,0.0622,-1.1125,-9.2843,-3.1662,0.0053,-0.0377,-0.0039
P1,A,539982,0.9332,0.9332,0.9472,0.8780,0.0131,-1.1628,-9.3256,-3.1818,0.0065,-0.0393,-0.0069
P1,A,540002,0.9339,0.9353,0.9500,0.9028,0.0227,-1.0903,-9.3041,-3.1668,0.0013,-0.0458,-0.0155
P1,A,540022,0.9358,0.9349,0.9577,0.8970,0.0535,-1.2502,-9.2849,-3.1644,0.0079,-0.0506,-0.0139
P1,A,540042,0.9396,0.9379,0.9568,0.8904,0.0092,-1.2215,-9.3017,-3.1932,0.0172,-0.0221,-0.0040
P1,A,540062,0.9324,0.9353,0.9582,0.8857,0.0000,-1.1945,-9.3963,-3.1878,0.0199,-0.0300,0.0001
P1,A,540082,0.9332,0.9379,0.9623,0.8644,0.0179,-1.1185,-9.3765,-3.1506,0.0073,-0.0292,-0.0033
P1,A,540102,0.9339,0.9336,0.9591,0.8818,0.0000,-1.1538,-9.3514,-3.1674,-0.0015,-0.0280,-0.0048
P1,A,540122,0.9366,0.9375,0.9559,0.8760,0.0000,-1.2227,-9.3047,-3.0758,0.0093,-0.0266,-0.0029
P1,A,540142,0.9328,0.9436,0.9518,0.8826,0.0018,-1.2478,-9.3011,-3.0908,0.0183,-0.0052,0.0079
P1,A,540162,0.9362,0.9384,0.9582,0.8873,0.0000,-1.2304,-9.3280,-3.2003,0.0033,0.0164,0.0151
P1,A,540182,0.9316,0.9388,0.9577,0.8838,0.0161,-1.0346,-9.1951,-3.1614,-0.0029,0.0290,0.0033
P1,A,540202,0.9354,0.9358,0.9541,0.8846,0.0000,-1.1137,-9.2879,-3.2914,-0.0037,0.0099,-0.0212
P1,A,540222,0.9370,0.9366,0.9559,0.8799,0.0000,-1.2742,-9.2124,-3.2973,-0.0001,0.0012,-0.0306
P1,A,540242,0.9313,0.9384,0.9545,0.8780,0.0000,-1.3113,-9.2789,-3.3189,0.0148,-0.0107,-0.0197
P1,A,540262,0.9187,0.9353,0.9550,0.8698,0.0118,-1.2532,-9.2759,-3.3339,0.0080,-0.0116,-0.0007
P1,A,540282,0.9347,0.9349,0.9564,0.8838,0.0014,-1.1502,-9.3382,-3.3117,-0.0011,0.0057,0.0117
P1,A,540302,0.9294,0.9445,0.9472,0.8803,0.0000,-0.9580,-9.3573,-3.2848,-0.0224,-0.0217,-0.0044
P1,A,540322,0.9335,0.9345,0.9559,0.8927,0.0000,-1.1179,-9.3897,-3.1716,-0.0358,-0.0325,-0.0228
P1,A,540342,0.9301,0.9353,0.9266,0.8698,0.0205,-1.0682,-9.3496,-2.9393,-0.0416,0.0024,-0.0176
P1,A,540362,0.9335,0.9371,0.9536,0.8927,0.0000,-1.1083,-9.5022,-2.8351,-0.0169,-0.0047,-0.0265
P1,A,540382,0.9366,0.9375,0.9577,0.8752,0.0000,-1.2083,-9.4430,-2.7225,-0.0093,-0.0187,-0.0240
P1,A,540402,0.9354,0.9353,0.9573,0.8943,0.0000,-1.2179,-9.4819,-2.7477,0.0332,-0.0137,-0.0200
P1,A,540422,0.9324,0.9379,0.9852,0.8916,0.0000,-1.1975,-9.4615,-2.8830,0.0369,-0.0216,-0.0177
P1,A,540442,0.9332,0.9336,0.9527,0.8717,0.0000,-1.2586,-9.4430,-2.9902,0.0528,-0.0506,-0.0209
P1,A,540462,0.9316,0.9362,0.9692,0.8931,0.0000,-1.2538,-9.2550,-3.0309,0.0469,-0.0501,-0.0159
P1,A,540482,0.9347,0.9353,0.9545,0.8939,0.0696,-1.2520,-9.2831,-3.1447,0.0747,-0.0640,-0.0136
P1,A,540502,0.9339,0.9349,0.9518,0.8931,0.0461,-1.1801,-9.3304,-3.3297,0.0480,-0.0630,-0.0172
P1,A,540522,0.9335,0.9366,0.9490,0.8846,0.0000,-1.2502,-9.2322,-3.3566,0.0384,-0.0750,-0.0173
P1,A,540542,0.9354,0.9345,0.9619,0.8885,0.0000,-1.3191,-9.2657,-3.4381,0.0354,-0.0562,-0.0188
P1,A,540562,0.9309,0.9332,0.9513,0.8885,0.0470,-1.2981,-9.2568,-3.3638,0.0141,-0.0657,-0.0145
P1,A,540582,0.9282,0.9327,0.9509,0.8818,0.0000,-1.3831,-9.2394,-3.2231,-0.0179,-0.0584,-0.0041
P1,A,540602,0.9393,0.9314,0.9824,0.9001,0.0513,-1.4328,-9.4238,-3.1626,-0.0048,-0.0257,0.0187
P1,A,540622,0.9305,0.9327,0.9564,0.8842,0.0040,-1.3203,-9.3136,-2.9920,-0.0196,-0.0164,0.0393
P1,A,540642,0.9301,0.9362,0.9573,0.9001,0.0000,-1.2789,-9.3154,-2.8782,0.0028,-0.0450,0.0332
P1,A,540662,0.9370,0.9362,0.9564,0.8865,0.0666,-1.3328,-9.3358,-2.8836,0.0133,-0.0601,0.0228
P1,A,540682,0.9294,0.9353,0.9591,0.8896,0.0492,-1.3496,-9.3705,-2.8806,0.0211,-0.0489,0.0297
P1,A,540702,0.9305,0.9358,0.9481,0.8943,0.0000,-1.2957,-9.3112,-2.9716,0.0260,-0.0252,0.0389
P1,A,540722,0.9297,0.9353,0.9564,0.8881,0.0000,-1.3215,-9.2939,-3.0201,0.0461,-0.0440,0.0288
P1,A,540742,0.9301,0.9358,0.9385,0.8892,0.0461,-1.5005,-9.2765,-3.0632,0.0372,-0.0556,0.0386
P1,A,540762,0.9259,0.9414,0.9399,0.8970,0.0000,-1.4304,-9.1771,-3.1375,0.0573,-0.0401,0.0558
P1,A,540782,0.9267,0.9366,0.9568,0.8912,0.1070,-1.3352,-9.2346,-3.2932,0.0500,-0.0380,0.0802
P1,A,540802,0.9313,0.9384,0.9600,0.8850,0.0000,-1.2065,-9.1873,-3.3650,0.0277,-0.0244,0.0714
P1,A,540822,0.9275,0.9375,0.9385,0.8912,0.0000,-1.2155,-9.1184,-3.3452,0.0261,-0.0248,0.0659
P1,A,540842,0.9290,0.9362,0.9582,0.9056,0.0609,-1.2616,-9.1148,-3.3464,0.0165,-0.0222,0.0585
P1,A,540862,0.9271,0.9349,0.9577,0.8982,0.0800,-1.1981,-9.2184,-3.3704,0.0116,-0.0076,0.0640
P1,A,540882,0.9271,0.9432,0.9559,0.8830,0.1005,-1.1101,-9.2927,-3.3788,-0.0024,0.0200,0.0794
P1,A,540902,0.9263,0.9358,0.9550,0.8931,0.0574,-0.8886,-9.2873,-3.3063,-0.0204,0.0373,0.0750
P1,A,540922,0.9351,0.9345,0.9609,0.9044,0.0518,-0.9203,-9.3166,-3.2512,-0.0252,-0.0080,0.0425
P1,A,540942,0.9275,0.9366,0.9545,0.8912,0.0757,-1.1071,-9.3136,-3.2770,-0.0252,0.0011,0.0354
P1,A,540962,0.9278,0.9358,0.9554,0.8885,0.0544,-1.0149,-9.3723,-3.2303,-0.0236,0.0473,0.0490
P1,A,540982,0.9305,0.9366,0.9701,0.8865,0.0387,-0.8927,-9.4298,-3.1369,-0.0216,0.0361,0.0472
P1,A,541002,0.9267,0.9340,0.9577,0.9024,0.0579,-0.8796,-9.3849,-3.0674,-0.0187,0.0131,0.0346
P1,A,541022,0.9282,0.9379,0.9806,0.9052,0.0540,-0.8808,-9.4789,-3.0686,-0.0131,0.0085,0.0354
P1,A,541042,0.9305,0.9336,0.9596,0.8679,0.0000,-0.7951,-9.5184,-3.0531,-0.0083,0.0282,0.0322
P1,A,541062,0.9320,0.9332,0.9600,0.8892,0.0618,-0.7257,-9.5220,-2.9902,-0.0008,0.0195,0.0203
P1,A,541082,0.9275,0.9353,0.9728,0.8780,0.0200,-0.7095,-9.4998,-2.9249,0.0096,0.0065,0.0073
P1,A,541102,0.9259,0.9345,0.9614,0.8881,0.0744,-0.7862,-9.5364,-2.9459,0.0272,0.0111,0.0041
P1,A,541122,0.9278,0.9358,0.9545,0.8776,0.0487,-0.7826,-9.5891,-2.9405,0.0269,0.0151,0.0031
P1,A,541142,0.9252,0.9336,0.9404,0.8787,0.0074,-0.8179,-9.5298,-2.8980,0.0376,-0.0025,0.0020
P1,A,541162,0.9267,0.9358,0.9536,0.8826,0.0114,-0.8251,-9.5238,-2.8213,0.0549,-0.0196,-0.0025
P1,A,541182,0.9297,0.9362,0.9573,0.8760,0.0087,-0.8544,-9.4735,-2.8806,0.0653,-0.0466,-0.0072
P1,A,541202,0.9282,0.9362,0.9500,0.8702,0.0114,-0.9610,-9.3819,-2.9950,0.0758,-0.0357,-0.0131
P1,A,541222,0.9237,0.9310,0.9495,0.8803,0.0692,-0.9616,-9.3142,-3.1201,0.0957,-0.0207,-0.0204
P1,A,541242,0.9263,0.9314,0.9568,0.9028,0.0557,-1.0718,-9.2508,-3.2884,0.0938,-0.0282,-0.0281
P1,A,541262,0.9267,0.9353,0.9559,0.8927,0.0453,-1.1831,-9.2041,-3.4404,0.0705,-0.0344,-0.0286
P1,A,541282,0.9278,0.9353,0.9573,0.8846,0.0000,-1.2418,-9.2083,-3.5201,0.0508,-0.0318,-0.0155
P1,A,541302,0.9267,0.9353,0.9573,0.8838,0.0105,-1.1604,-9.1723,-3.5740,0.0333,-0.0278,-0.0024
P1,A,541322,0.9301,0.9349,0.9683,0.8846,0.0000,-1.0293,-9.1556,-3.6207,0.0157,-0.0529,-0.0100
P1,A,541342,0.9278,0.9353,0.9568,0.8881,0.0135,-1.0682,-9.2100,-3.5680,-0.0060,-0.0628,-0.0274
P1,A,541362,0.9286,0.9345,0.9513,0.8912,0.0000,-1.0933,-9.2526,-3.4985,-0.0377,-0.0440,-0.0200
P1,A,541382,0.9271,0.9332,0.9349,0.8962,0.0000,-1.0778,-9.2184,-3.4117,-0.0593,-0.0302,-0.0207
P1,A,541402,0.9256,0.9366,0.9554,0.8935,0.0592,-1.0251,-9.2364,-3.2884,-0.0649,-0.0370,-0.0246
P1,A,541422,0.9294,0.9349,0.9271,0.8904,0.0000,-1.1783,-9.2765,-3.2177,-0.0673,-0.0358,-0.0308
P1,A,541442,0.9294,0.9353,0.9147,0.8811,0.0000,-1.2394,-9.3220,-3.1171,-0.0568,0.0084,-0.0224
P1,A,541462,0.9275,0.9345,0.9536,0.8811,0.0487,-1.1293,-9.3220,-2.9662,-0.0545,0.0199,-0.0048
P1,A,541482,0.9267,0.9332,0.9509,0.8807,0.0000,-1.1179,-9.3412,-2.9309,-0.0328,-0.0226,-0.0200
P1,A,541502,0.9271,0.9345,0.9522,0.8815,0.0000,-1.2418,-9.3741,-3.0028,-0.0264,-0.0318,-0.0200
P1,A,541522,0.9309,0.9345,0.9509,0.8834,0.0031,-1.1861,-9.3244,-3.0081,-0.0201,-0.0132,-0.0173
P1,A,541542,0.9259,0.9340,0.9509,0.8861,0.0427,-1.2017,-9.4112,-3.0572,-0.0109,-0.0250,-0.0132
P1,A,541562,0.9248,0.9345,0.9586,0.9013,0.0179,-1.1394,-9.3430,-2.9770,-0.0193,-0.0280,-0.0071
P1,A,541582,0.9267,0.9319,0.9513,0.8834,0.0000,-1.1706,-9.3831,-3.0542,-0.0083,-0.0397,-0.0032
