person_id,label,timestamp,flex1,flex2,flex3,flex4,flex5,ax,ay,az,gx,gy,gz
P1B,B,639142,0.9956,0.9968,1.0000,1.0000,0.9426,-1.8382,-9.5454,-1.4208,0.0264,-0.0417,-0.0192
P1B,B,639162,0.9953,0.9968,1.0000,0.9919,0.9636,-1.9783,-9.6286,-1.4807,0.0370,-0.0557,-0.0386
P1B,B,639182,0.9975,0.9981,0.9974,0.9896,1.0000,-1.9951,-9.5196,-1.4807,0.0369,-0.0332,-0.0233
P1B,B,639202,0.9960,0.9938,0.9961,0.9973,1.0000,-1.8885,-9.4585,-1.5592,0.0342,-0.0332,-0.0151
P1B,B,639222,0.9942,0.9955,0.9755,1.0000,0.9759,-1.9472,-9.4717,-1.5741,0.0260,-0.0336,-0.0232
P1B,B,639242,0.9953,0.9955,0.9939,0.9923,0.9422,-2.0837,-9.3549,-1.5574,0.0091,-0.0222,-0.0068
P1B,B,639262,0.9960,0.9947,1.0000,1.0000,1.0000,-2.0148,-9.4400,-1.5412,0.0173,-0.0067,0.0187
P1B,B,639282,0.9949,0.9943,0.9895,1.0000,0.9597,-1.8573,-9.4735,-1.5214,0.0036,-0.0328,0.0069
P1B,B,639302,0.9953,0.9921,0.9900,1.0000,0.9312,-2.0004,-9.5298,-1.5532,0.0009,-0.0588,-0.0107
P1B,B,639322,0.9930,0.9968,0.9952,1.0000,0.9444,-2.0591,-9.6052,-1.5675,0.0033,-0.0342,-0.0052
P1B,B,639342,0.9971,0.9943,0.9970,1.0000,0.9225,-2.0130,-9.5621,-1.5657,-0.0061,-0.0258,0.0045
P1B,B,639362,0.9964,0.9938,0.9917,0.9778,1.0000,-1.9633,-9.6663,-1.5514,-0.0075,-0.0476,-0.0057
P1B,B,639382,0.9942,0.9943,0.9944,0.9846,0.9470,-2.0657,-9.5867,-1.5148,-0.0181,-0.0584,-0.0153
P1B,B,639402,0.9927,0.9968,0.9895,0.9931,0.9435,-2.0795,-9.5489,-1.4382,0.0021,-0.0272,-0.0017
P1B,B,639422,0.9942,0.9951,0.9922,0.9984,1.0000,-1.8963,-9.6477,-1.4448,0.0109,-0.0180,0.0096
P1B,B,639442,0.9953,0.9938,0.9922,0.9701,0.9501,-1.8364,-9.5148,-1.3987,0.0113,-0.0329,0.0003
P1B,B,639462,0.9938,0.9951,0.9786,0.9885,1.0000,-1.8807,-9.5717,-1.4885,0.0354,-0.0358,-0.0156
P1B,B,639482,0.9964,0.9955,0.9759,1.0000,0.9702,-1.9448,-9.5729,-1.5137,0.0313,-0.0346,-0.0149
P1B,B,639502,0.9934,0.9938,0.9895,0.9904,1.0000,-2.0064,-9.5412,-1.5532,0.0229,-0.0232,-0.0057
P1B,B,639522,0.9930,0.9943,0.9821,0.9889,0.9698,-1.9394,-9.4490,-1.5532,0.0116,-0.0197,-0.0060
P1B,B,639542,0.9927,0.9947,0.9900,0.9938,1.0000,-1.9891,-9.5454,-1.4993,0.0120,-0.0292,-0.0107
P1B,B,639562,0.9956,0.9921,0.9882,0.9915,0.9352,-1.9891,-9.4867,-1.4490,0.0132,-0.0380,-0.0160
P1B,B,639582,0.9945,0.9960,0.9926,0.9812,0.9628,-2.0352,-9.5651,-1.4652,0.0113,-0.0336,-0.0031
P1B,B,639602,0.9934,0.9947,1.0000,0.9996,1.0000,-2.0226,-9.4969,-1.4675,0.0044,-0.0254,0.0028
P1B,B,639622,0.9949,0.9926,0.9860,0.9743,1.0000,-1.9466,-9.5699,-1.4023,0.0193,-0.0421,-0.0055
P1B,B,639642,0.9964,0.9930,0.9917,0.9931,0.9282,-2.0244,-9.6238,-1.4753,0.0216,-0.0521,-0.0104
P1B,B,639662,0.9945,0.9926,0.9891,0.9900,1.0000,-2.0543,-9.6034,-1.4861,0.0149,-0.0417,0.0003
P1B,B,639682,0.9938,0.9896,0.9917,0.9915,0.9343,-1.9064,-9.5358,-1.5520,0.0144,-0.0394,0.0057
P1B,B,639702,0.9934,0.9947,0.9707,0.9904,1.0000,-1.9148,-9.5346,-1.5226,0.0204,-0.0557,-0.0181
P1B,B,639722,0.9934,0.9960,1.0000,1.0000,1.0000,-1.9819,-9.5777,-1.4987,0.0282,-0.0522,-0.0225
P1B,B,639742,0.9949,0.9951,0.9935,0.9812,1.0000,-1.9879,-9.5687,-1.4837,0.0203,-0.0322,-0.0176
P1B,B,639762,0.9949,0.9934,0.9970,0.9988,1.0000,-1.9645,-9.5436,-1.5107,0.0285,-0.0353,-0.0157
P1B,B,639782,0.9938,0.9913,0.9935,0.9954,1.0000,-1.9729,-9.5699,-1.5586,0.0188,-0.0373,-0.0143
P1B,B,639802,0.9938,0.9947,0.9974,0.9827,0.9553,-2.0406,-9.5058,-1.5310,0.0088,-0.0464,-0.0192
P1B,B,639822,0.9934,0.9930,0.9917,0.9980,0.9820,-2.0663,-9.5292,-1.5795,0.0171,-0.0321,-0.0060
P1B,B,650182,0.0513,0.0005,0.0000,0.0000,0.9089,-1.2592,-9.6190,-0.7425,0.0036,-0.0422,-0.0237
P1B,B,650202,0.0524,0.0001,0.0000,0.0000,0.8883,-1.2921,-9.6699,-0.6796,0.0067,-0.0434,-0.0216
P1B,B,650242,0.0521,0.0005,0.0000,0.0000,0.8283,-1.3328,-9.6531,-0.7143,0.0246,-0.0362,-0.0109
P1B,B,650262,0.0576,0.0000,0.0000,0.0000,0.8800,-1.3424,-9.6340,-0.6712,0.0213,-0.0172,-0.0036
P1B,B,650282,0.0521,0.0000,0.0000,0.0032,0.8804,-1.3448,-9.6507,-0.6514,0.0164,-0.0121,-0.0044
P1B,B,650302,0.0502,0.0000,0.0000,0.0000,0.8896,-1.3646,-9.6639,-0.6508,0.0108,-0.0264,-0.0117
P1B,B,650322,0.0536,0.0001,0.0000,0.0000,0.8256,-1.4436,-9.6843,-0.6718,0.0172,-0.0354,-0.0147
P1B,B,650342,0.0513,0.0000,0.0000,0.0000,0.9439,-1.4903,-9.7028,-0.6682,0.0083,-0.0262,-0.0025
P1B,B,650362,0.0506,0.0039,0.0090,0.0000,0.8835,-1.4190,-9.7232,-0.6688,-0.0033,-0.0228,0.0004
P1B,B,650382,0.0524,0.0013,0.0000,0.0000,0.9084,-1.3981,-9.6825,-0.6473,-0.0061,-0.0374,-0.0084
P1B,B,650402,0.0550,0.0000,0.0000,0.0000,0.8405,-1.4394,-9.7435,-0.6742,0.0028,-0.0433,-0.0119
P1B,B,650422,0.0454,0.0047,0.0081,0.0000,0.8011,-1.3550,-9.7663,-0.6646,-0.0003,-0.0388,-0.0135
P1B,B,650442,0.0502,0.0005,0.0042,0.0000,0.8857,-1.3586,-9.7364,-0.6491,-0.0036,-0.0324,-0.0112
P1B,B,650462,0.0513,0.0000,0.0000,0.0000,0.8134,-1.3634,-9.7100,-0.6263,0.0084,-0.0215,-0.0079
P1B,B,650482,0.0524,0.0026,0.0029,0.0000,0.7674,-1.3394,-9.7399,-0.6443,0.0229,-0.0304,-0.0125
P1B,B,650502,0.0573,0.0000,0.0000,0.0000,0.9562,-1.3616,-9.7244,-0.6461,0.0184,-0.0393,-0.0184
P1B,B,650522,0.0517,0.0018,0.0024,0.0000,0.8546,-1.4352,-9.7615,-0.6742,0.0228,-0.0380,-0.0229
P1B,B,650542,0.0513,0.0000,0.0000,0.0000,0.8029,-1.4376,-9.6944,-0.6844,0.0179,-0.0334,-0.0218
P1B,B,650562,0.0528,0.0009,0.0000,0.0000,0.8839,-1.4795,-9.6507,-0.7047,0.0252,-0.0334,-0.0153
P1B,B,650582,0.0495,0.0035,0.0000,0.0000,0.8440,-1.4382,-9.6675,-0.7179,0.0222,-0.0364,-0.0060
P1B,B,650602,0.0532,0.0000,0.0000,0.0000,0.8401,-1.3945,-9.6950,-0.7556,0.0128,-0.0384,0.0004
P1B,B,650622,0.0521,0.0000,0.0000,0.0000,0.9019,-1.3981,-9.6908,-0.7197,0.0032,-0.0338,-0.0060
P1B,B,650642,0.0517,0.0000,0.0000,0.0000,0.8751,-1.3969,-9.6861,-0.6634,-0.0011,-0.0349,-0.0113
P1B,B,650662,0.0513,0.0026,0.0000,0.0000,0.8234,-1.3765,-9.6825,-0.6580,-0.0044,-0.0272,-0.0180
P1B,B,650682,0.0517,0.0000,0.0000,0.0000,0.8397,-1.3652,-9.6573,-0.6227,-0.0089,-0.0270,-0.0240
P1B,B,650702,0.0521,0.0000,0.0090,0.0000,0.8392,-1.3981,-9.6106,-0.6311,-0.0004,-0.0408,-0.0325
P1B,B,650722,0.0510,0.0000,0.0000,0.0000,0.9119,-1.5101,-9.6950,-0.6419,0.0097,-0.0352,-0.0222
P1B,B,650742,0.0532,0.0018,0.0000,0.0000,0.8221,-1.5346,-9.6920,-0.6802,-0.0121,-0.0159,-0.0024
P1B,B,650762,0.0517,0.0000,0.0000,0.0000,0.8975,-1.4400,-9.6663,-0.5970,-0.0115,-0.0236,0.0048
P1B,B,650782,0.0528,0.0000,0.0235,0.0000,0.8953,-1.4610,-9.7483,-0.5796,0.0025,-0.0396,0.0032
P1B,B,650802,0.0528,0.0000,0.0002,0.0000,0.8800,-1.4436,-9.7513,-0.6365,0.0085,-0.0429,0.0093
P1B,B,650822,0.0532,0.0001,0.0000,0.0000,0.8493,-1.3568,-9.7627,-0.6287,0.0121,-0.0401,0.0109
P1B,B,650842,0.0562,0.0022,0.0073,0.0000,0.8497,-1.3478,-9.7537,-0.6496,0.0191,-0.0508,-0.0013
P1B,B,650862,0.0532,0.0000,0.0000,0.0000,0.8256,-1.4083,-9.7196,-0.6203,0.0131,-0.0462,-0.0071
P1B,B,650882,0.0510,0.0022,0.0000,0.0000,0.8397,-1.4478,-9.6789,-0.6556,0.0095,-0.0268,0.0027
P1B,B,650902,0.0528,0.0000,0.0000,0.0000,0.8331,-1.4023,-9.7088,-0.6389,0.0175,-0.0329,-0.0031
P1B,B,650922,0.0547,0.0000,0.0116,0.0000,0.8997,-1.4334,-9.7166,-0.6251,0.0112,-0.0613,-0.0141
P1B,B,650942,0.0547,0.0022,0.0000,0.0000,0.7901,-1.5017,-9.7525,-0.6700,0.0069,-0.0609,-0.0117
P1B,B,650962,0.0532,0.0000,0.0134,0.0000,0.8721,-1.4693,-9.6819,-0.6269,0.0093,-0.0393,0.0068
P1B,B,650982,0.0524,0.0022,0.0000,0.0000,0.9049,-1.3915,-9.7591,-0.6341,0.0109,-0.0404,0.0123
P1B,B,651002,0.0528,0.0005,0.0000,0.0000,0.9006,-1.3556,-9.7166,-0.6347,0.0059,-0.0398,0.0111
P1B,B,651022,0.0573,0.0000,0.0112,0.0012,0.8725,-1.3268,-9.7537,-0.6634,0.0145,-0.0436,0.0068
P1B,B,651042,0.0517,0.0035,0.0000,0.0001,0.8935,-1.3286,-9.7052,-0.6730,0.0155,-0.0544,-0.0039
P1B,B,651062,0.0532,0.0009,0.0000,0.0000,0.9128,-1.4053,-9.6340,-0.6742,0.0266,-0.0562,-0.0023
P1B,B,651082,0.0532,0.0047,0.0094,0.0000,0.8410,-1.3963,-9.7136,-0.6964,0.0328,-0.0426,-0.0019
P1B,B,651102,0.0528,0.0022,0.0086,0.0000,0.8971,-1.3376,-9.7184,-0.7053,0.0240,-0.0373,0.0016
P1B,B,651122,0.0513,0.0001,0.0007,0.0000,0.8988,-1.4196,-9.7435,-0.7113,0.0127,-0.0337,0.0024
P1B,B,651142,0.0517,0.0000,0.0029,0.0000,0.9006,-1.3855,-9.6885,-0.7011,-0.0043,-0.0326,-0.0036
P1B,B,651162,0.0517,0.0005,0.0000,0.0000,0.8274,-1.4017,-9.6453,-0.6856,0.0032,-0.0414,-0.0047
P1B,B,651182,0.0584,0.0009,0.0000,0.0000,0.9422,-1.3562,-9.7370,-0.6694,0.0115,-0.0262,-0.0021
P1B,B,651202,0.0573,0.0000,0.0000,0.0000,0.8427,-1.3735,-9.7813,-0.6179,0.0048,-0.0408,-0.0044
P1B,B,651222,0.0517,0.0000,0.0103,0.0000,0.9260,-1.4256,-9.6759,-0.5934,0.0072,-0.0426,-0.0039
P1B,B,651242,0.0536,0.0000,0.0000,0.0000,0.8537,-1.4149,-9.7112,-0.6083,0.0196,-0.0368,-0.0027
P1B,B,651262,0.0524,0.0009,0.0020,0.0000,0.8274,-1.3616,-9.6585,-0.6455,0.0128,-0.0333,-0.0013
P1B,B,651282,0.0528,0.0056,0.0000,0.0000,0.7972,-1.4023,-9.6543,-0.6898,0.0160,-0.0358,-0.0068
P1B,B,651302,0.0547,0.0005,0.0029,0.0000,0.8795,-1.4011,-9.7166,-0.7263,0.0077,-0.0436,-0.0123
P1B,B,651322,0.0543,0.0000,0.0051,0.0000,0.8055,-1.4268,-9.7340,-0.7562,-0.0109,-0.0565,-0.0051
P1B,B,651342,0.0524,0.0009,0.0169,0.0000,0.8274,-1.4436,-9.6687,-0.6922,-0.0111,-0.0506,0.0084
P1B,B,651362,0.0536,0.0005,0.0000,0.0000,0.8843,-1.3729,-9.7322,-0.6131,0.0073,-0.0345,0.0153
P1B,B,651382,0.0528,0.0030,0.0000,0.0000,0.8489,-1.3173,-9.7579,-0.6113,0.0165,-0.0366,0.0109
P1B,B,651402,0.0539,0.0026,0.0130,0.0000,0.7989,-1.2424,-9.7238,-0.6401,0.0161,-0.0501,-0.0008
P1B,B,651422,0.0569,0.0018,0.0064,0.0000,0.8971,-1.2526,-9.7148,-0.6724,0.0109,-0.0413,-0.0085
P1B,B,651442,0.0539,0.0013,0.0000,0.0000,0.8852,-1.4011,-9.7268,-0.7191,0.0145,-0.0290,-0.0048
P1B,B,651462,0.0543,0.0009,0.0051,0.0000,0.8804,-1.3783,-9.7004,-0.6975,0.0049,-0.0164,0.0001
P1B,B,651482,0.0524,0.0005,0.0033,0.0000,0.8169,-1.3831,-9.6418,-0.6664,0.0003,-0.0293,-0.0125
P1B,B,651502,0.0573,0.0047,0.0055,0.0000,0.8269,-1.4580,-9.7262,-0.6550,-0.0039,-0.0437,-0.0208
P1B,B,651522,0.0554,0.0018,0.0000,0.0000,0.8379,-1.4424,-9.6549,-0.6329,-0.0028,-0.0490,-0.0027
P1B,B,651542,0.0517,0.0030,0.0000,0.0000,0.8370,-1.4089,-9.7855,-0.5778,0.0152,-0.0540,0.0023
P1B,B,651562,0.0532,0.0000,0.0000,0.0000,0.9027,-1.4101,-9.7549,-0.5970,0.0072,-0.0445,-0.0013
P1B,B,651582,0.0521,0.0043,0.0000,0.0000,0.8309,-1.4460,-9.7501,-0.6281,0.0156,-0.0410,0.0028
P1B,B,651602,0.0536,0.0013,0.0046,0.0000,0.8243,-1.3658,-9.7974,-0.6616,0.0155,-0.0250,0.0123
P1B,B,651622,0.0510,0.0018,0.0077,0.0000,0.9150,-1.2670,-9.7022,-0.6664,0.0083,-0.0224,0.0137
P1B,B,651642,0.0536,0.0026,0.0011,0.0000,0.8484,-1.2730,-9.6783,-0.6760,0.0199,-0.0413,-0.0044
P1B,B,651662,0.0517,0.0005,0.0000,0.0000,0.8927,-1.3328,-9.7381,-0.7005,0.0229,-0.0553,-0.0135
P1B,B,651682,0.0539,0.0000,0.0000,0.0000,0.9045,-1.3628,-9.7322,-0.6754,0.0039,-0.0390,-0.0163
P1B,B,651702,0.0565,0.0026,0.0029,0.0000,0.9325,-1.3670,-9.6561,-0.6323,0.0096,-0.0342,-0.0140
P1B,B,651722,0.0532,0.0005,0.0000,0.0000,0.8475,-1.4244,-9.6950,-0.6347,0.0257,-0.0215,-0.0119
P1B,B,651742,0.0536,0.0013,0.0000,0.0000,0.8918,-1.3927,-9.7214,-0.6586,0.0192,-0.0305,-0.0073
P1B,B,651762,0.0554,0.0030,0.0033,0.0000,0.8361,-1.4155,-9.7040,-0.6491,0.0061,-0.0382,-0.0044
P1B,B,651782,0.0539,0.0005,0.0000,0.0000,0.8773,-1.3987,-9.7268,-0.6479,0.0031,-0.0336,0.0009
P1B,B,651802,0.0625,0.0022,0.0055,0.0000,0.8975,-1.3981,-9.7034,-0.6999,-0.0051,-0.0393,-0.0057
P1B,B,651822,0.0573,0.0018,0.0011,0.0000,0.8033,-1.4436,-9.6795,-0.6179,0.0007,-0.0401,-0.0076
P1B,B,651842,0.0550,0.0000,0.0000,0.0000,0.8935,-1.3700,-9.6741,-0.6287,0.0052,-0.0268,-0.0080
P1B,B,651862,0.0576,0.0022,0.0000,0.0000,0.8445,-1.3640,-9.6908,-0.5820,0.0163,-0.0449,-0.0049
P1B,B,651882,0.0595,0.0009,0.0000,0.0043,0.8944,-1.4454,-9.7687,-0.6568,0.0091,-0.0408,-0.0009
P1B,B,651902,0.0554,0.0013,0.0002,0.0000,0.8125,-1.4161,-9.7160,-0.5952,0.0008,-0.0372,0.0124
P1B,B,651922,0.0517,0.0000,0.0000,0.0000,0.8800,-1.4208,-9.7501,-0.6461,0.0137,-0.0344,0.0113
P1B,B,651942,0.0550,0.0073,0.0000,0.0000,0.8532,-1.3454,-9.6974,-0.6658,0.0079,-0.0404,0.0081
P1B,B,651962,0.0524,0.0022,0.0000,0.0000,0.9290,-1.3089,-9.6873,-0.6616,0.0195,-0.0377,0.0060
P1B,B,651982,0.0539,0.0009,0.0125,0.0000,0.8475,-1.2436,-9.7759,-0.6592,0.0192,-0.0365,0.0120
P1B,B,652002,0.0543,0.0018,0.0016,0.0273,0.9141,-1.2454,-9.6932,-0.6233,0.0092,-0.0309,0.0012
P1B,B,652022,0.0550,0.0001,0.0000,0.0000,0.8261,-1.2753,-9.7124,-0.6173,0.0128,-0.0357,-0.0093
P1B,B,652042,0.0547,0.0018,0.0454,0.0000,0.8813,-1.4298,-9.7190,-0.6550,0.0031,-0.0374,-0.0132
P1B,B,652062,0.0524,0.0013,0.0000,0.0000,0.8388,-1.4167,-9.6765,-0.6778,-0.0095,-0.0289,-0.0057
P1B,B,652082,0.0495,0.0030,0.0000,0.0000,0.8353,-1.3939,-9.6759,-0.6023,0.0021,-0.0300,-0.0029
P1B,B,652102,0.0539,0.0001,0.0007,0.0000,0.8843,-1.3879,-9.7136,-0.6281,0.0065,-0.0398,-0.0100
P1B,B,652122,0.0539,0.0005,0.0000,0.0000,0.8966,-1.3957,-9.7717,-0.6317,0.0021,-0.0565,-0.0127
P1B,B,652142,0.0528,0.0128,0.0000,0.0000,0.8291,-1.4454,-9.7010,-0.6203,-0.0020,-0.0450,-0.0043
P1B,B,652162,0.0543,0.0000,0.0042,0.0000,0.8602,-1.3640,-9.7687,-0.5892,0.0112,-0.0292,0.0056
P1B,B,652182,0.0536,0.0000,0.0000,0.0000,0.8344,-1.2903,-9.7855,-0.6544,0.0175,-0.0436,0.0047
P1B,B,652202,0.0524,0.0005,0.0000,0.0000,0.8467,-1.3400,-9.7094,-0.6239,0.0195,-0.0541,-0.0044
P1B,B,652222,0.0539,0.0069,0.0000,0.0009,0.8103,-1.3370,-9.7693,-0.6520,0.0284,-0.0432,-0.0089
P1B,B,652242,0.0550,0.0013,0.0024,0.0000,0.9014,-1.3065,-9.7190,-0.6502,0.0164,-0.0514,-0.0101
P1B,B,652262,0.0532,0.0018,0.0000,0.0000,0.8760,-1.3927,-9.6573,-0.7047,0.0233,-0.0382,-0.0076
P1B,B,652282,0.0536,0.0009,0.0103,0.0000,0.8046,-1.3352,-9.7118,-0.7281,0.0266,-0.0253,-0.0077
P1B,B,652302,0.0547,0.0039,0.0000,0.0000,0.8050,-1.4083,-9.6855,-0.6838,0.0172,-0.0420,-0.0108
P1B,B,652322,0.0539,0.0077,0.0037,0.0000,0.8112,-1.3921,-9.6639,-0.6317,0.0196,-0.0364,-0.0065
P1B,B,652342,0.0547,0.0056,0.0000,0.0001,0.8773,-1.3340,-9.7298,-0.6646,0.0216,-0.0441,0.0035
P1B,B,652362,0.0550,0.0009,0.0042,0.0081,0.9014,-1.3927,-9.7352,-0.6467,0.0087,-0.0430,0.0053
P1B,B,652382,0.0550,0.0081,0.0002,0.0000,0.9093,-1.3280,-9.6968,-0.6461,0.0004,-0.0394,-0.0023
P1B,B,652402,0.0565,0.0001,0.0064,0.0000,0.8887,-1.3634,-9.6867,-0.6197,0.0036,-0.0306,-0.0100
P1B,B,652422,0.0539,0.0030,0.0059,0.0020,0.7844,-1.3029,-9.7196,-0.6712,-0.0023,-0.0233,-0.0112
P1B,B,652442,0.0554,0.0009,0.0156,0.0000,0.8112,-1.3364,-9.6603,-0.6526,-0.0093,-0.0452,-0.0097
P1B,B,652462,0.0536,0.0039,0.0000,0.0000,0.8931,-1.4520,-9.7244,-0.6401,-0.0020,-0.0421,0.0001
P1B,B,652482,0.0558,0.0000,0.0011,0.0000,0.8116,-1.3735,-9.7292,-0.6383,-0.0132,-0.0276,0.0065
P1B,B,652502,0.0558,0.0035,0.0016,0.0000,0.8318,-1.3783,-9.7214,-0.5592,0.0132,-0.0568,0.0043
P1B,B,652522,0.0524,0.0043,0.0077,0.0000,0.8199,-1.3550,-9.8340,-0.6473,0.0183,-0.0449,0.0051
P1B,B,652542,0.0506,0.0026,0.0134,0.0000,0.8515,-1.2993,-9.6346,-0.6814,0.0169,-0.0546,0.0133
P1B,B,652562,0.0543,0.0026,0.0000,0.0000,0.8182,-1.2730,-9.7980,-0.6341,0.0357,-0.0250,-0.0021
P1B,B,652582,0.0536,0.0000,0.0000,0.0000,0.8848,-1.1778,-9.7489,-0.6485,0.0196,-0.0352,-0.0100
P1B,B,652602,0.0543,0.0039,0.0000,0.0000,0.8944,-1.3298,-9.7010,-0.6077,0.0265,-0.0701,-0.0188
P1B,B,652622,0.0562,0.0064,0.0064,0.0000,0.8743,-1.3903,-9.7316,-0.6473,0.0192,-0.0340,-0.0156
P1B,B,652642,0.0558,0.0043,0.0000,0.0000,0.8269,-1.3849,-9.6573,-0.6269,0.0155,-0.0253,-0.0183
P1B,B,652662,0.0565,0.0081,0.0002,0.0000,0.9207,-1.4167,-9.7028,-0.6419,0.0257,-0.0468,-0.0305
P1B,B,652682,0.0580,0.0026,0.0000,0.0000,0.8392,-1.5148,-9.7399,-0.6760,0.0187,-0.0562,-0.0224
P1B,B,652702,0.0550,0.0022,0.0130,0.0000,0.9247,-1.5011,-9.6849,-0.6964,0.0064,-0.0384,0.0017
P1B,B,652722,0.0554,0.0000,0.0000,0.0000,0.8550,-1.2921,-9.6825,-0.6856,0.0197,-0.0269,0.0060
P1B,B,652742,0.0554,0.0035,0.0000,0.0000,0.8896,-1.2622,-9.7687,-0.7113,0.0103,-0.0522,-0.0077
P1B,B,652762,0.0547,0.0000,0.0024,0.0000,0.8379,-1.3370,-9.6202,-0.7598,-0.0052,-0.0466,-0.0103
P1B,B,652782,0.0536,0.0009,0.0011,0.0146,0.8778,-1.3843,-9.6519,-0.6730,0.0187,-0.0222,0.0004
P1B,B,652802,0.0565,0.0018,0.0000,0.0000,0.8506,-1.3238,-9.7501,-0.6365,0.0215,-0.0051,-0.0036
P1B,B,652822,0.0587,0.0039,0.0000,0.0000,0.9106,-1.3717,-9.7172,-0.6383,0.0128,-0.0172,-0.0051
P1B,B,652842,0.0543,0.0039,0.0000,0.0000,0.8151,-1.3083,-9.7914,-0.6377,0.0258,-0.0096,-0.0040
P1B,B,652862,0.0524,0.0013,0.0000,0.0000,0.8388,-1.4286,-9.7543,-0.6437,0.0221,-0.0361,-0.0065
P1B,B,652882,0.0562,0.0005,0.0000,0.0000,0.8064,-1.4173,-9.7932,-0.6826,0.0192,-0.0433,-0.0067
P1B,B,652902,0.0536,0.0043,0.0000,0.0000,0.8835,-1.3939,-9.7819,-0.7293,0.0052,-0.0434,0.0015
P1B,B,652922,0.0580,0.0013,0.0033,0.0000,0.7989,-1.3508,-9.7801,-0.6323,0.0016,-0.0404,-0.0008
P1B,B,652942,0.0558,0.0022,0.0029,0.0000,0.7972,-1.3191,-9.7459,-0.6395,0.0015,-0.0417,-0.0143
P1B,B,652962,0.0547,0.0030,0.0000,0.0000,0.8164,-1.3981,-9.7926,-0.6125,0.0027,-0.0294,-0.0217
P1B,B,652982,0.0536,0.0069,0.0046,0.0000,0.8213,-1.3292,-9.6352,-0.5574,0.0064,-0.0342,-0.0256
P1B,B,653002,0.0536,0.0030,0.0042,0.0000,0.8822,-1.3670,-9.7525,-0.5904,0.0244,-0.0462,-0.0361
P1B,B,653022,0.0539,0.0035,0.0002,0.0000,0.8112,-1.4628,-9.7615,-0.6808,0.0067,-0.0673,-0.0305
P1B,B,653042,0.0547,0.0009,0.0020,0.0000,0.8857,-1.5430,-9.6837,-0.5946,0.0103,-0.0412,-0.0091
P1B,B,653062,0.0584,0.0056,0.0000,0.0000,0.9111,-1.3604,-9.6950,-0.6263,0.0282,-0.0191,0.0072
P1B,B,653082,0.0554,0.0073,0.0000,0.0000,0.9023,-1.3634,-9.7172,-0.6233,0.0416,-0.0540,-0.0067
P1B,B,653102,0.0569,0.0030,0.0000,0.0000,0.8248,-1.3244,-9.7471,-0.6724,0.0478,-0.0458,-0.0080
P1B,B,653122,0.0554,0.0047,0.0000,0.0000,0.8975,-1.3562,-9.6879,-0.7299,0.0352,-0.0492,-0.0011
P1B,B,653142,0.0550,0.0056,0.0000,0.0000,0.8467,-1.2634,-9.6322,-0.7353,0.0328,-0.0478,-0.0156
P1B,B,653162,0.0554,0.0005,0.0000,0.0000,0.8997,-1.3322,-9.6471,-0.7748,0.0332,-0.0432,-0.0195
P1B,B,653182,0.0569,0.0069,0.0068,0.0000,0.8655,-1.3604,-9.6693,-0.7730,0.0211,-0.0103,-0.0075
P1B,B,653202,0.0558,0.0013,0.0000,0.0000,0.9172,-1.2945,-9.6154,-0.6826,0.0004,-0.0256,-0.0213
P1B,B,653222,0.0543,0.0039,0.0024,0.0000,0.8795,-1.4286,-9.6591,-0.7371,0.0060,-0.0509,-0.0398
P1B,B,653242,0.0539,0.0001,0.0000,0.0000,0.9019,-1.5047,-9.7483,-0.7550,-0.0035,-0.0208,-0.0187
P1B,B,653262,0.0573,0.0005,0.0002,0.0000,0.8997,-1.4430,-9.7310,-0.6682,-0.0195,0.0021,-0.0007
P1B,B,653282,0.0569,0.0035,0.0000,0.0000,0.8068,-1.3777,-9.7280,-0.5353,-0.0043,-0.0204,-0.0113
P1B,B,653302,0.0532,0.0077,0.0033,0.0000,0.8077,-1.4592,-9.7896,-0.6137,0.0123,-0.0468,-0.0200
P1B,B,653322,0.0576,0.0022,0.0046,0.0012,0.9128,-1.4669,-9.7747,-0.6281,0.0111,-0.0382,-0.0035
P1B,B,653342,0.0554,0.0069,0.0051,0.0000,0.8997,-1.3765,-9.7381,-0.6419,0.0226,-0.0314,0.0032
P1B,B,653362,0.0547,0.0039,0.0000,0.0000,0.9027,-1.3364,-9.7681,-0.6395,0.0310,-0.0473,-0.0123
P1B,B,653382,0.0576,0.0056,0.0000,0.0000,0.9159,-1.3909,-9.7280,-0.6820,0.0261,-0.0545,-0.0218
P1B,B,653402,0.0547,0.0052,0.0147,0.0000,0.8064,-1.4041,-9.6986,-0.6922,0.0364,-0.0346,-0.0109
P1B,B,653422,0.0558,0.0039,0.0000,0.0000,0.8997,-1.3586,-9.7376,-0.7161,0.0280,-0.0205,-0.0069
P1B,B,653442,0.0539,0.0056,0.0077,0.0000,0.8410,-1.3502,-9.7076,-0.6820,0.0277,-0.0406,-0.0256
P1B,B,653462,0.0550,0.0052,0.0000,0.0070,0.9115,-1.4448,-9.7106,-0.7125,0.0225,-0.0525,-0.0320
P1B,B,653482,0.0539,0.0000,0.0024,0.0000,0.8348,-1.4442,-9.6938,-0.7251,0.0135,-0.0450,-0.0212
P1B,B,653502,0.0543,0.0047,0.0029,0.0000,0.9027,-1.4490,-9.6783,-0.7149,0.0127,-0.0361,-0.0207
P1B,B,653522,0.0573,0.0022,0.0046,0.0000,0.8857,-1.4316,-9.6729,-0.7059,0.0109,-0.0286,-0.0173
P1B,B,653542,0.0580,0.0056,0.0000,0.0000,0.8914,-1.4574,-9.6046,-0.6814,0.0083,-0.0204,-0.0099
P1B,B,653562,0.0576,0.0056,0.0007,0.0000,0.8822,-1.3843,-9.6388,-0.6868,0.0120,-0.0286,-0.0103
P1B,B,653582,0.0554,0.0060,0.0125,0.0000,0.8567,-1.4131,-9.7399,-0.6946,-0.0003,-0.0440,-0.0105
P1B,B,653602,0.0562,0.0090,0.0051,0.0000,0.9203,-1.4250,-9.6861,-0.6586,0.0016,-0.0464,-0.0091
P1B,B,653622,0.0547,0.0073,0.0143,0.0000,0.8786,-1.4382,-9.7154,-0.6814,0.0128,-0.0353,-0.0005
P1B,B,653642,0.0554,0.0060,0.0016,0.0009,0.9225,-1.3711,-9.7627,-0.6808,0.0119,-0.0349,-0.0029
P1B,B,653662,0.0580,0.0030,0.0000,0.0000,0.9238,-1.3628,-9.6950,-0.6491,0.0159,-0.0465,-0.0075
P1B,B,653682,0.0595,0.0086,0.0037,0.0000,0.9185,-1.3711,-9.7154,-0.6700,0.0308,-0.0222,-0.0053
P1B,B,653702,0.0565,0.0052,0.0134,0.0000,0.8173,-1.3568,-9.7729,-0.6682,0.0337,-0.0344,-0.0080
P1B,B,653722,0.0543,0.0026,0.0108,0.0000,0.8226,-1.4238,-9.6843,-0.6419,0.0217,-0.0424,-0.0193
P1B,B,653742,0.0517,0.0047,0.0000,0.0000,0.9076,-1.5346,-9.6394,-0.7155,0.0300,-0.0328,-0.0144
P1B,B,653762,0.0539,0.0115,0.0007,0.0000,0.8068,-1.5358,-9.6980,-0.7592,0.0245,-0.0180,-0.0055
P1B,B,653782,0.0587,0.0039,0.0081,0.0000,0.8694,-1.4652,-9.6771,-0.7431,-0.0009,-0.0384,-0.0061
P1B,B,653802,0.0524,0.0069,0.0000,0.0000,0.8204,-1.4687,-9.6112,-0.6790,-0.0041,-0.0641,-0.0092
P1B,B,653822,0.0510,0.0069,0.0000,0.0000,0.8300,-1.5047,-9.7501,-0.6862,0.0129,-0.0501,-0.0015
P1B,B,653842,0.0628,0.0107,0.0000,0.0032,0.9194,-1.4137,-9.7411,-0.6532,-0.0012,-0.0373,0.0012
P1B,B,653862,0.0565,0.0039,0.0204,0.0058,0.8795,-1.3867,-9.6723,-0.6574,0.0112,-0.0516,-0.0073
P1B,B,653882,0.0550,0.0052,0.0016,0.0000,0.7893,-1.4089,-9.7310,-0.7119,0.0248,-0.0478,-0.0125
P1B,B,653902,0.0576,0.0060,0.0077,0.0000,0.9019,-1.4011,-9.7549,-0.7245,0.0218,-0.0418,-0.0097
P1B,B,653922,0.0584,0.0081,0.0000,0.0000,0.8344,-1.4190,-9.7214,-0.7053,0.0187,-0.0377,-0.0080
P1B,B,653942,0.0480,0.0064,0.0059,0.0000,0.9505,-1.3831,-9.7519,-0.7167,0.0241,-0.0334,-0.0087
P1B,B,653962,0.0573,0.0081,0.0024,0.0000,0.8024,-1.3436,-9.6783,-0.7299,0.0264,-0.0409,-0.0123
P1B,B,653982,0.0550,0.0064,0.0000,0.0000,0.8808,-1.3879,-9.7358,-0.7790,0.0277,-0.0422,-0.0203
P1B,B,654002,0.0554,0.0069,0.0187,0.0000,0.8852,-1.4681,-9.7244,-0.8071,0.0095,-0.0492,-0.0289
P1B,B,654022,0.0536,0.0069,0.0169,0.0000,0.8300,-1.4741,-9.6352,-0.7347,0.0044,-0.0332,-0.0213
P1B,B,654042,0.0573,0.0052,0.0086,0.0000,0.8686,-1.4879,-9.6639,-0.6628,0.0169,-0.0201,-0.0108
P1B,B,654062,0.0558,0.0052,0.0000,0.0000,0.8427,-1.3694,-9.7106,-0.6874,0.0140,-0.0272,-0.0149
P1B,B,654082,0.0558,0.0030,0.0046,0.0000,0.8931,-1.4951,-9.6214,-0.6550,0.0092,-0.0445,-0.0125
P1B,B,654102,0.0510,0.0081,0.0051,0.0001,0.8383,-1.5131,-9.6208,-0.7107,0.0187,-0.0286,-0.0036
P1B,B,654122,0.0602,0.0056,0.0033,0.0000,0.8900,-1.4262,-9.6932,-0.7460,0.0135,-0.0285,-0.0007
P1B,B,654142,0.0547,0.0013,0.0086,0.0000,0.8037,-1.4783,-9.6585,-0.7203,-0.0065,-0.0546,-0.0037
P1B,B,654162,0.0558,0.0022,0.0037,0.0000,0.9141,-1.4789,-9.6304,-0.7089,0.0019,-0.0509,0.0012
P1B,B,654182,0.0558,0.0077,0.0000,0.0000,0.9076,-1.4610,-9.6932,-0.6910,0.0037,-0.0221,0.0116
P1B,B,654202,0.0554,0.0056,0.0000,0.0000,0.8800,-1.3490,-9.7166,-0.6742,0.0113,-0.0229,0.0131
P1B,B,654222,0.0584,0.0086,0.0051,0.0000,0.8594,-1.3957,-9.7112,-0.6658,0.0144,-0.0410,0.0016
P1B,B,654242,0.0547,0.0022,0.0151,0.0062,0.8953,-1.3538,-9.7076,-0.7065,0.0195,-0.0457,-0.0055
P1B,B,654262,0.0587,0.0086,0.0173,0.0012,0.9049,-1.4370,-9.6962,-0.7299,0.0080,-0.0326,-0.0027
P1B,B,654282,0.0543,0.0056,0.0068,0.0001,0.8813,-1.4268,-9.6986,-0.7814,0.0071,-0.0262,-0.0037
P1B,B,654302,0.0558,0.0086,0.0000,0.0000,0.9093,-1.4310,-9.6891,-0.7556,0.0052,-0.0358,-0.0117
P1B,B,654322,0.0584,0.0081,0.0068,0.0000,0.8935,-1.4873,-9.6986,-0.7419,-0.0021,-0.0412,-0.0101
P1B,B,654342,0.0599,0.0103,0.0020,0.0000,0.8252,-1.4711,-9.7178,-0.7101,-0.0021,-0.0413,-0.0041
P1B,B,654362,0.0580,0.0043,0.0090,0.0000,0.9155,-1.4843,-9.7232,-0.6748,-0.0071,-0.0448,-0.0089
P1B,B,654382,0.0595,0.0047,0.0000,0.0000,0.8734,-1.4999,-9.7016,-0.6592,0.0049,-0.0404,-0.0043
P1B,B,654402,0.0543,0.0052,0.0033,0.0066,0.9089,-1.4131,-9.7310,-0.6580,0.0228,-0.0215,0.0075
P1B,B,654422,0.0569,0.0005,0.0029,0.0000,0.8050,-1.3215,-9.7657,-0.6688,0.0354,-0.0418,0.0043
P1B,B,654442,0.0569,0.0094,0.0121,0.0000,0.8090,-1.4280,-9.7358,-0.7508,0.0372,-0.0490,-0.0063
P1B,B,654462,0.0539,0.0077,0.0011,0.0000,0.8418,-1.4466,-9.7058,-0.8460,0.0192,-0.0199,-0.0007
P1B,B,654482,0.0562,0.0035,0.0169,0.0062,0.8826,-1.3837,-9.6495,-0.8287,0.0057,-0.0185,-0.0057
P1B,B,654502,0.0584,0.0060,0.0051,0.0000,0.9518,-1.4310,-9.6867,-0.7347,0.0064,-0.0337,-0.0140
P1B,B,654522,0.0565,0.0043,0.0051,0.0000,0.9102,-1.4466,-9.7082,-0.6856,0.0139,-0.0426,-0.0133
P1B,B,654542,0.0599,0.0069,0.0033,0.0000,0.8186,-1.4969,-9.7501,-0.6730,0.0084,-0.0370,-0.0100
P1B,B,654562,0.0576,0.0064,0.0165,0.0000,0.8011,-1.4334,-9.7076,-0.6916,0.0040,-0.0317,-0.0081
P1B,B,654582,0.0584,0.0086,0.0204,0.0000,0.8493,-1.4705,-9.6753,-0.6975,0.0099,-0.0297,0.0016
P1B,B,654602,0.0536,0.0086,0.0000,0.0000,0.8195,-1.3987,-9.6352,-0.7353,0.0135,-0.0254,-0.0020
P1B,B,654622,0.0595,0.0077,0.0000,0.0051,0.8896,-1.4232,-9.6717,-0.6820,0.0241,-0.0516,-0.0039
P1B,B,654642,0.0591,0.0056,0.0116,0.0000,0.8852,-1.4466,-9.6705,-0.7490,0.0023,-0.0440,-0.0028
P1B,B,654662,0.0513,0.0073,0.0121,0.0000,0.9325,-1.4400,-9.6028,-0.7634,-0.0079,-0.0238,0.0031
P1B,B,654682,0.0576,0.0077,0.0143,0.0024,0.9268,-1.3478,-9.7202,-0.7311,-0.0069,-0.0157,-0.0004
P1B,B,654702,0.0554,0.0056,0.0000,0.0000,0.8826,-1.4771,-9.7064,-0.7107,-0.0116,-0.0420,-0.0040
P1B,B,654722,0.0562,0.0069,0.0000,0.0000,0.9190,-1.4406,-9.7376,-0.7077,-0.0160,-0.0199,0.0075
P1B,B,654742,0.0599,0.0090,0.0077,0.0000,0.8217,-1.3700,-9.7016,-0.6449,0.0009,-0.0294,0.0111
P1B,B,654762,0.0513,0.0120,0.0213,0.0150,0.8747,-1.3376,-9.8082,-0.6377,0.0132,-0.0544,-0.0063
P1B,B,654782,0.0550,0.0081,0.0042,0.0000,0.8405,-1.4831,-9.7471,-0.6532,0.0139,-0.0484,-0.0072
P1B,B,654802,0.0576,0.0056,0.0016,0.0000,0.8405,-1.4131,-9.6944,-0.6604,0.0222,-0.0260,0.0037
P1B,B,654822,0.0587,0.0094,0.0033,0.0000,0.8865,-1.4185,-9.7519,-0.6538,0.0254,-0.0301,0.0008
P1B,B,654842,0.0569,0.0056,0.0042,0.0000,0.8414,-1.4310,-9.7016,-0.7029,0.0217,-0.0365,-0.0075
P1B,B,654862,0.0580,0.0047,0.0029,0.0000,0.8751,-1.4903,-9.7477,-0.7496,0.0177,-0.0298,-0.0075
P1B,B,654882,0.0550,0.0077,0.0217,0.0000,0.8765,-1.4544,-9.6681,-0.6898,-0.0017,-0.0349,-0.0071
P1B,B,654902,0.0495,0.0086,0.0213,0.0000,0.9365,-1.4933,-9.7304,-0.6826,0.0103,-0.0564,-0.0044
P1B,B,654922,0.0521,0.0052,0.0000,0.0000,0.8055,-1.4681,-9.6879,-0.6778,0.0076,-0.0485,0.0025
P1B,B,654942,0.0565,0.0086,0.0011,0.0000,0.8778,-1.3741,-9.7346,-0.6616,0.0113,-0.0424,0.0029
P1B,B,654962,0.0562,0.0039,0.0033,0.0000,0.7748,-1.3765,-9.7112,-0.6730,0.0179,-0.0370,-0.0011
P1B,B,654982,0.0602,0.0086,0.0042,0.0000,0.8795,-1.3771,-9.7064,-0.7011,0.0252,-0.0362,-0.0060
P1B,B,655002,0.0576,0.0064,0.0112,0.0000,0.8217,-1.3957,-9.7202,-0.7730,0.0213,-0.0378,-0.0120
P1B,B,655022,0.0554,0.0098,0.0055,0.0024,0.8186,-1.4149,-9.7088,-0.7760,0.0092,-0.0408,-0.0167
P1B,B,655042,0.0554,0.0043,0.0204,0.0000,0.8957,-1.4466,-9.6759,-0.7203,0.0101,-0.0412,-0.0132
P1B,B,655062,0.0569,0.0077,0.0073,0.0020,0.8808,-1.4190,-9.6573,-0.6862,0.0099,-0.0388,-0.0137
P1B,B,655082,0.0543,0.0094,0.0046,0.0035,0.8971,-1.4933,-9.6687,-0.7017,0.0229,-0.0424,-0.0055
P1B,B,655102,0.0558,0.0090,0.0000,0.0000,0.8817,-1.4705,-9.7088,-0.7580,0.0084,-0.0252,0.0053
P1B,B,655122,0.0580,0.0073,0.0000,0.0000,0.8410,-1.3891,-9.6531,-0.7389,-0.0016,-0.0425,0.0103
P1B,B,655142,0.0565,0.0090,0.0051,0.0000,0.8151,-1.4077,-9.7214,-0.6999,0.0033,-0.0370,0.0031
P1B,B,655162,0.0543,0.0047,0.0178,0.0000,0.8313,-1.3676,-9.6819,-0.6670,0.0001,-0.0377,-0.0101
P1B,B,655182,0.0554,0.0094,0.0000,0.0078,0.9041,-1.4460,-9.6759,-0.6844,-0.0033,-0.0368,-0.0104
P1B,B,655202,0.0580,0.0060,0.0143,0.0000,0.8896,-1.3993,-9.6370,-0.6970,0.0005,-0.0313,-0.0141
P1B,B,655222,0.0584,0.0090,0.0182,0.0000,0.8248,-1.4723,-9.7340,-0.6550,0.0057,-0.0453,-0.0148
P1B,B,655242,0.0473,0.0064,0.0024,0.0000,0.8782,-1.4837,-9.7340,-0.6461,0.0007,-0.0466,-0.0001
P1B,B,655262,0.0573,0.0056,0.0051,0.0000,0.8348,-1.5119,-9.6926,-0.6353,0.0085,-0.0357,0.0053
P1B,B,655282,0.0573,0.0056,0.0000,0.0074,0.8839,-1.4562,-9.7465,-0.6550,0.0250,-0.0381,0.0103
P1B,B,655302,0.0573,0.0047,0.0029,0.0000,0.8418,-1.4687,-9.7777,-0.7472,0.0228,-0.0364,0.0172
P1B,B,655322,0.0562,0.0081,0.0094,0.0000,0.9093,-1.2610,-9.7058,-0.7245,0.0143,-0.0338,0.0183
P1B,B,655342,0.0576,0.0133,0.0033,0.0000,0.8195,-1.2472,-9.7441,-0.7179,0.0159,-0.0609,-0.0037
P1B,B,655362,0.0580,0.0094,0.0011,0.0000,0.8905,-1.3849,-9.7028,-0.6958,0.0127,-0.0580,-0.0209
P1B,B,655382,0.0576,0.0103,0.0401,0.0000,0.8248,-1.4388,-9.7274,-0.7095,0.0165,-0.0272,-0.0137
P1B,B,655402,0.0584,0.0073,0.0000,0.0000,0.9014,-1.3903,-9.7160,-0.6868,0.0060,-0.0128,-0.0116
P1B,B,655422,0.0562,0.0098,0.0029,0.0000,0.8874,-1.3987,-9.6573,-0.6970,0.0035,-0.0453,-0.0228
P1B,B,655442,0.0576,0.0056,0.0000,0.0000,0.8234,-1.5436,-9.6783,-0.6975,0.0136,-0.0577,-0.0232
P1B,B,655462,0.0591,0.0060,0.0011,0.0000,0.9049,-1.5418,-9.7238,-0.7419,0.0135,-0.0349,-0.0039
P1B,B,655482,0.0584,0.0073,0.0064,0.0000,0.9220,-1.4837,-9.6789,-0.6760,0.0012,-0.0181,0.0085
P1B,B,655502,0.0584,0.0056,0.0000,0.0000,0.8326,-1.3747,-9.6741,-0.6910,0.0117,-0.0225,0.0085
P1B,B,655522,0.0584,0.0069,0.0029,0.0043,0.8353,-1.3340,-9.7172,-0.7035,0.0203,-0.0456,-0.0037
P1B,B,655542,0.0565,0.0047,0.0059,0.0000,0.8296,-1.3939,-9.7447,-0.7293,0.0155,-0.0544,-0.0068
P1B,B,655562,0.0554,0.0052,0.0103,0.0000,0.8795,-1.4208,-9.6639,-0.6970,0.0176,-0.0326,0.0027
P1B,B,655582,0.0602,0.0073,0.0016,0.0000,0.8795,-1.3280,-9.7322,-0.6999,0.0171,-0.0201,-0.0001
P1B,B,655602,0.0591,0.0026,0.0068,0.0000,0.8813,-1.3951,-9.6843,-0.7616,0.0063,-0.0393,-0.0103
P1B,B,655622,0.0599,0.0094,0.0059,0.0000,0.9211,-1.3909,-9.6849,-0.7574,0.0073,-0.0313,-0.0112
P1B,B,655642,0.0587,0.0081,0.0059,0.0000,0.8050,-1.4107,-9.7220,-0.7071,0.0052,-0.0314,-0.0055
P1B,B,655662,0.0580,0.0035,0.0020,0.0000,0.8541,-1.4280,-9.7202,-0.6658,0.0099,-0.0412,-0.0045
P1B,B,655682,0.0584,0.0069,0.0000,0.0000,0.8471,-1.4340,-9.7435,-0.6592,0.0104,-0.0314,-0.0024
P1B,B,655702,0.0595,0.0120,0.0011,0.0000,0.9124,-1.4460,-9.7028,-0.6946,0.0015,-0.0294,-0.0071
P1B,B,655722,0.0606,0.0047,0.0055,0.0000,0.8760,-1.4274,-9.6555,-0.6784,0.0016,-0.0293,-0.0091
P1B,B,655742,0.0558,0.0073,0.0073,0.0000,0.8515,-1.4508,-9.6974,-0.6868,0.0085,-0.0242,-0.0025
P1B,B,655762,0.0606,0.0133,0.0029,0.0000,0.8480,-1.4310,-9.6849,-0.7347,-0.0056,-0.0249,0.0040
P1B,B,655782,0.0569,0.0090,0.0042,0.0000,0.8743,-1.4346,-9.6507,-0.7029,-0.0151,-0.0445,-0.0025
P1B,B,655802,0.0554,0.0077,0.0042,0.0016,0.8182,-1.4729,-9.7136,-0.6616,-0.0083,-0.0420,0.0003
P1B,B,655822,0.0599,0.0086,0.0042,0.0000,0.9347,-1.3209,-9.7166,-0.5976,0.0073,-0.0258,0.0055
P1B,B,655842,0.0565,0.0103,0.0000,0.0000,0.8068,-1.3670,-9.7729,-0.6532,0.0147,-0.0288,0.0104
P1B,B,655862,0.0602,0.0098,0.0090,0.0000,0.8900,-1.3682,-9.6741,-0.6634,0.0224,-0.0386,0.0016
P1B,B,655882,0.0599,0.0060,0.0000,0.0000,0.8344,-1.3556,-9.7639,-0.7179,0.0246,-0.0396,0.0016
P1B,B,655902,0.0602,0.0077,0.0121,0.0000,0.8305,-1.3813,-9.7178,-0.6682,0.0238,-0.0492,-0.0005
P1B,B,655922,0.0554,0.0035,0.0064,0.0000,0.8129,-1.3676,-9.6998,-0.6550,0.0229,-0.0348,-0.0057
P1B,B,655942,0.0576,0.0090,0.0007,0.0000,0.8366,-1.3580,-9.7010,-0.6616,0.0167,-0.0517,-0.0081
P1B,B,655962,0.0554,0.0073,0.0222,0.0000,0.8169,-1.4472,-9.7076,-0.6856,0.0171,-0.0494,-0.0173
P1B,B,655982,0.0613,0.0098,0.0042,0.0074,0.9247,-1.4693,-9.7172,-0.7227,0.0101,-0.0372,-0.0132
P1B,B,656002,0.0591,0.0081,0.0301,0.0078,0.8957,-1.4448,-9.6771,-0.6479,0.0120,-0.0418,-0.0043
P1B,B,656022,0.0617,0.0077,0.0204,0.0000,0.8524,-1.4586,-9.7292,-0.7065,0.0135,-0.0406,-0.0023
P1B,B,656042,0.0606,0.0115,0.0265,0.0208,0.8480,-1.4586,-9.7849,-0.7137,0.0021,-0.0362,-0.0020
P1B,B,656062,0.0558,0.0081,0.0125,0.0000,0.8848,-1.4017,-9.6998,-0.6874,0.0007,-0.0321,-0.0008
P1B,B,656082,0.0602,0.0094,0.0033,0.0000,0.8331,-1.3634,-9.7040,-0.6844,0.0119,-0.0421,-0.0044
P1B,B,656102,0.0587,0.0043,0.0000,0.0032,0.9019,-1.3741,-9.7238,-0.7155,0.0249,-0.0544,-0.0095
P1B,B,656122,0.0613,0.0098,0.0094,0.0000,0.8467,-1.4238,-9.7190,-0.7029,0.0218,-0.0500,-0.0141
P1B,B,656142,0.0602,0.0064,0.0033,0.0000,0.8502,-1.4179,-9.7232,-0.7185,0.0237,-0.0434,-0.0197
P1B,B,656162,0.0587,0.0073,0.0037,0.0000,0.8935,-1.4687,-9.7214,-0.6934,0.0226,-0.0342,-0.0115
P1B,B,656182,0.0591,0.0073,0.0016,0.0000,0.8029,-1.3981,-9.7477,-0.7299,0.0176,-0.0128,0.0012
P1B,B,656202,0.0591,0.0030,0.0094,0.0024,0.8445,-1.3250,-9.6795,-0.7580,0.0169,-0.0380,-0.0085
P1B,B,656222,0.0576,0.0103,0.0055,0.0074,0.8883,-1.4586,-9.6926,-0.7592,0.0135,-0.0514,-0.0147
P1B,B,656242,0.0595,0.0090,0.0016,0.0000,0.8979,-1.4310,-9.6591,-0.7095,0.0083,-0.0302,-0.0079
P1B,B,656262,0.0554,0.0098,0.0037,0.0000,0.7954,-1.3634,-9.7076,-0.6970,0.0103,-0.0213,-0.0132
P1B,B,656282,0.0587,0.0030,0.0033,0.0000,0.8129,-1.3526,-9.6950,-0.6550,0.0097,-0.0348,-0.0253
P1B,B,656302,0.0587,0.0098,0.0024,0.0000,0.8725,-1.5196,-9.6932,-0.6928,0.0135,-0.0388,-0.0164
P1B,B,656322,0.0587,0.0115,0.0020,0.0000,0.8467,-1.4705,-9.6908,-0.7077,0.0032,-0.0221,-0.0039
P1B,B,656342,0.0591,0.0094,0.0000,0.0000,0.8418,-1.4226,-9.6920,-0.7005,-0.0003,-0.0488,-0.0048
P1B,B,656362,0.0606,0.0090,0.0000,0.0000,0.9185,-1.5508,-9.6837,-0.6898,-0.0029,-0.0598,-0.0013
P1B,B,656382,0.0565,0.0115,0.0000,0.0000,0.8340,-1.4460,-9.7100,-0.6975,-0.0015,-0.0341,0.0148
P1B,B,656402,0.0584,0.0098,0.0042,0.0000,0.8760,-1.2903,-9.6944,-0.6071,0.0149,-0.0361,0.0193
P1B,B,656422,0.0584,0.0098,0.0073,0.0058,0.8896,-1.2747,-9.7376,-0.7041,0.0265,-0.0558,-0.0001
P1B,B,656442,0.0617,0.0086,0.0029,0.0000,0.8861,-1.3945,-9.7429,-0.7191,0.0265,-0.0558,-0.0080
P1B,B,656462,0.0584,0.0086,0.0081,0.0000,0.8177,-1.3771,-9.7334,-0.7401,0.0176,-0.0264,-0.0013
P1B,B,656482,0.0565,0.0115,0.0029,0.0000,0.8480,-1.3520,-9.6825,-0.7209,0.0143,-0.0216,-0.0013
P1B,B,656502,0.0625,0.0094,0.0213,0.0000,0.8462,-1.3879,-9.6944,-0.7383,0.0121,-0.0336,-0.0067
P1B,B,656522,0.0573,0.0052,0.0059,0.0000,0.9067,-1.4208,-9.6495,-0.6975,0.0037,-0.0296,-0.0080
P1B,B,656542,0.0573,0.0086,0.0252,0.0000,0.8344,-1.4807,-9.7376,-0.6820,0.0065,-0.0289,-0.0105
P1B,B,656562,0.0595,0.0094,0.0051,0.0000,0.9036,-1.4442,-9.7352,-0.6892,0.0079,-0.0373,-0.0129
P1B,B,656582,0.0591,0.0077,0.0000,0.0000,0.8502,-1.5053,-9.6944,-0.7089,0.0025,-0.0568,-0.0111
P1B,B,656602,0.0543,0.0098,0.0077,0.0000,0.9080,-1.4771,-9.7262,-0.6993,0.0047,-0.0474,-0.0067
P1B,B,656622,0.0602,0.0090,0.0046,0.0000,0.8375,-1.4556,-9.7609,-0.7377,0.0059,-0.0386,0.0032
P1B,B,656642,0.0610,0.0107,0.0094,0.0000,0.8975,-1.3867,-9.6962,-0.6802,0.0091,-0.0356,0.0076
P1B,B,656662,0.0576,0.0090,0.0046,0.0000,0.8256,-1.2418,-9.7172,-0.6724,0.0136,-0.0462,0.0005
P1B,B,656682,0.0580,0.0141,0.0279,0.0000,0.8361,-1.3855,-9.7340,-0.6898,0.0269,-0.0544,-0.0148
P1B,B,656702,0.0584,0.0103,0.0086,0.0000,0.8383,-1.3891,-9.7609,-0.6975,0.0286,-0.0349,-0.0140
P1B,B,656722,0.0610,0.0090,0.0068,0.0000,0.9119,-1.4208,-9.7124,-0.7820,0.0111,-0.0236,-0.0097
P1B,B,656742,0.0591,0.0120,0.0042,0.0000,0.8813,-1.4220,-9.6202,-0.7239,0.0222,-0.0436,-0.0112
P1B,B,656762,0.0576,0.0098,0.0064,0.0000,0.8817,-1.4891,-9.7238,-0.7586,0.0230,-0.0362,-0.0132
P1B,B,656782,0.0617,0.0052,0.0033,0.0000,0.9431,-1.4179,-9.7166,-0.7131,0.0040,-0.0193,-0.0008
P1B,B,656802,0.0606,0.0098,0.0090,0.0000,0.8716,-1.4077,-9.6783,-0.6766,0.0047,-0.0286,0.0009
P1B,B,656822,0.0613,0.0077,0.0094,0.0000,0.8331,-1.3640,-9.7322,-0.7209,0.0028,-0.0342,-0.0157
P1B,B,656842,0.0569,0.0098,0.0000,0.0000,0.8151,-1.4412,-9.6435,-0.6670,0.0004,-0.0461,-0.0156
P1B,B,656862,0.0610,0.0098,0.0024,0.0000,0.9045,-1.4885,-9.7256,-0.6538,-0.0028,-0.0230,-0.0088
P1B,B,656882,0.0576,0.0073,0.0081,0.0016,0.8440,-1.4167,-9.6286,-0.5916,-0.0027,-0.0366,-0.0079
P1B,B,656902,0.0569,0.0107,0.0086,0.0000,0.8344,-1.4454,-9.7783,-0.6975,0.0128,-0.0524,-0.0085
P1B,B,656922,0.0580,0.0047,0.0000,0.0000,0.8817,-1.4687,-9.7040,-0.6856,-0.0057,-0.0432,0.0051
P1B,B,656942,0.0584,0.0103,0.0086,0.0000,0.9356,-1.3897,-9.7334,-0.5886,0.0092,-0.0254,0.0099
P1B,B,656962,0.0636,0.0060,0.0042,0.0000,0.8348,-1.4334,-9.7399,-0.6802,0.0270,-0.0484,-0.0001
P1B,B,656982,0.0576,0.0115,0.0000,0.0000,0.7976,-1.4202,-9.7699,-0.7335,0.0333,-0.0336,-0.0019
P1B,B,657002,0.0587,0.0098,0.0296,0.0000,0.8484,-1.3346,-9.7441,-0.7371,0.0312,-0.0482,0.0000
P1B,B,657022,0.0617,0.0103,0.0024,0.0035,0.8992,-1.3801,-9.7417,-0.7826,0.0212,-0.0532,-0.0148
P1B,B,657042,0.0602,0.0103,0.0055,0.0000,0.8252,-1.3957,-9.7076,-0.6574,0.0234,-0.0570,-0.0192
P1B,B,657062,0.0617,0.0052,0.0046,0.0000,0.8405,-1.4196,-9.7328,-0.7209,0.0218,-0.0328,-0.0144
P1B,B,657082,0.0584,0.0013,0.0000,0.0000,0.8265,-1.4035,-9.7088,-0.6904,0.0217,-0.0289,-0.0104
P1B,B,657102,0.0606,0.0077,0.0051,0.0000,0.8870,-1.4526,-9.7034,-0.7490,0.0232,-0.0406,-0.0187
P1B,B,657122,0.0573,0.0103,0.0020,0.0000,0.8432,-1.5137,-9.7423,-0.7437,0.0181,-0.0393,-0.0111
P1B,B,657142,0.0587,0.0086,0.0125,0.0000,0.8462,-1.4502,-9.6861,-0.7227,0.0063,-0.0211,-0.0039
P1B,B,657162,0.0599,0.0090,0.0099,0.0000,0.8252,-1.3915,-9.6759,-0.6610,0.0225,-0.0452,-0.0075
P1B,B,657182,0.0606,0.0073,0.0024,0.0000,0.8826,-1.3706,-9.7495,-0.6742,0.0244,-0.0616,-0.0233
P1B,B,657202,0.0587,0.0094,0.0147,0.0000,0.8445,-1.4466,-9.7142,-0.7149,0.0172,-0.0472,-0.0164
P1B,B,657222,0.0591,0.0090,0.0000,0.0000,0.9273,-1.3969,-9.6938,-0.6952,0.0298,-0.0329,-0.0135
P1B,B,657242,0.0599,0.0115,0.0160,0.0000,0.8099,-1.4173,-9.7501,-0.7107,0.0326,-0.0509,-0.0184
P1B,B,657262,0.0613,0.0081,0.0007,0.0000,0.8559,-1.4382,-9.6459,-0.7149,0.0284,-0.0441,-0.0188
P1B,B,657282,0.0591,0.0098,0.0037,0.0000,0.8226,-1.4981,-9.7088,-0.7215,0.0385,-0.0280,-0.0063
P1B,B,657302,0.0613,0.0111,0.0016,0.0000,0.8984,-1.4059,-9.6777,-0.7275,0.0288,-0.0333,-0.0109
P1B,B,657322,0.0602,0.0107,0.0103,0.0000,0.7985,-1.4915,-9.6891,-0.7922,0.0254,-0.0388,-0.0083
P1B,B,657342,0.0595,0.0098,0.0138,0.0000,0.8782,-1.4334,-9.6513,-0.7664,0.0117,-0.0334,-0.0057
P1B,B,657362,0.0602,0.0090,0.0094,0.0000,0.8445,-1.4214,-9.6400,-0.7802,0.0277,-0.0592,-0.0123
P1B,B,657382,0.0599,0.0081,0.0055,0.0000,0.8125,-1.4071,-9.7136,-0.7670,0.0197,-0.0541,-0.0195
P1B,B,657402,0.0587,0.0094,0.0000,0.0000,0.8274,-1.4376,-9.6639,-0.8137,0.0087,-0.0297,-0.0095
P1B,B,657422,0.0576,0.0090,0.0059,0.0000,0.8743,-1.4107,-9.6525,-0.7808,0.0087,-0.0171,-0.0100
P1B,B,657442,0.0602,0.0064,0.0055,0.0000,0.8751,-1.4747,-9.6585,-0.8047,0.0089,-0.0361,-0.0132
P1B,B,657462,0.0562,0.0145,0.0051,0.0028,0.8760,-1.4604,-9.6873,-0.8137,-0.0051,-0.0316,-0.0092
P1B,B,657482,0.0543,0.0120,0.0068,0.0000,0.8892,-1.4843,-9.7232,-0.7233,-0.0179,-0.0266,0.0043
P1B,B,657502,0.0610,0.0090,0.0077,0.0000,0.7923,-1.4131,-9.7250,-0.6700,-0.0067,-0.0209,0.0055
P1B,B,657522,0.0602,0.0039,0.0305,0.0000,0.8274,-1.4143,-9.7483,-0.6568,0.0063,-0.0330,-0.0021
P1B,B,657542,0.0587,0.0073,0.0046,0.0000,0.8191,-1.4113,-9.7160,-0.6796,0.0261,-0.0334,-0.0077
P1B,B,657562,0.0599,0.0094,0.0007,0.0000,0.8949,-1.4298,-9.7471,-0.7023,0.0370,-0.0368,-0.0040
P1B,B,657582,0.0569,0.0098,0.0055,0.0000,0.8962,-1.3951,-9.7447,-0.6964,0.0320,-0.0386,-0.0099
P1B,B,657602,0.0602,0.0073,0.0222,0.0000,0.9211,-1.5017,-9.7010,-0.7029,0.0329,-0.0456,-0.0083
P1B,B,657622,0.0584,0.0081,0.0000,0.0000,0.8743,-1.4592,-9.7214,-0.7652,0.0288,-0.0342,-0.0040
P1B,B,657642,0.0602,0.0077,0.0064,0.0000,0.8786,-1.5202,-9.6549,-0.7472,0.0196,-0.0438,-0.0141
P1B,B,657662,0.0576,0.0120,0.0143,0.0000,0.8059,-1.5717,-9.6753,-0.8161,0.0183,-0.0425,-0.0180
P1B,B,657682,0.0591,0.0094,0.0073,0.0000,0.9198,-1.5771,-9.6974,-0.8221,-0.0089,-0.0356,-0.0135
P1B,B,657702,0.0625,0.0111,0.0029,0.0000,0.8357,-1.4729,-9.6322,-0.7520,-0.0179,-0.0390,-0.0111
P1B,B,657722,0.0617,0.0077,0.0252,0.0000,0.8830,-1.5113,-9.7286,-0.7335,-0.0075,-0.0412,-0.0180
P1B,B,657742,0.0591,0.0094,0.0160,0.0000,0.8033,-1.4322,-9.7358,-0.6790,-0.0076,-0.0324,-0.0180
P1B,B,657762,0.0562,0.0073,0.0042,0.0000,0.8725,-1.3765,-9.7579,-0.6371,0.0125,-0.0408,-0.0189
P1B,B,657782,0.0595,0.0115,0.0086,0.0000,0.8103,-1.3813,-9.8232,-0.6616,0.0278,-0.0334,-0.0222
P1B,B,657802,0.0613,0.0111,0.0112,0.0005,0.8808,-1.3957,-9.7609,-0.6401,0.0320,-0.0432,-0.0155
P1B,B,657822,0.0580,0.0069,0.0073,0.0016,0.9176,-1.4735,-9.7429,-0.6263,0.0517,-0.0345,-0.0067
P1B,B,657842,0.0576,0.0090,0.0090,0.0154,0.9159,-1.3999,-9.7280,-0.6742,0.0681,-0.0209,0.0041
P1B,B,657862,0.0610,0.0107,0.0000,0.0000,0.9369,-1.4256,-9.6944,-0.7011,0.0650,-0.0079,0.0073
P1B,B,657882,0.0599,0.0086,0.0002,0.0000,0.8484,-1.4143,-9.6483,-0.7610,0.0622,-0.0040,0.0013
P1B,B,657902,0.0591,0.0098,0.0077,0.0000,0.8892,-1.4628,-9.6178,-0.8227,0.0546,-0.0222,-0.0107
P1B,B,657922,0.0595,0.0111,0.0081,0.0047,0.8462,-1.5041,-9.6579,-0.8610,0.0452,-0.0281,-0.0145
P1B,B,657942,0.0587,0.0107,0.0077,0.0000,0.9084,-1.4729,-9.6579,-0.8185,0.0189,-0.0232,-0.0075
P1B,B,657962,0.0584,0.0111,0.0143,0.0000,0.9084,-1.3951,-9.6795,-0.7586,0.0123,-0.0187,0.0021
P1B,B,657982,0.0636,0.0103,0.0051,0.0000,0.8870,-1.3185,-9.6986,-0.7526,0.0057,-0.0209,0.0008
P1B,B,658002,0.0606,0.0107,0.0000,0.0000,0.8874,-1.3741,-9.6753,-0.7197,-0.0096,-0.0308,-0.0153
P1B,B,658022,0.0610,0.0043,0.0261,0.0000,0.8186,-1.4813,-9.6561,-0.7341,-0.0124,-0.0226,-0.0135
P1B,B,658042,0.0602,0.0086,0.0121,0.0000,0.9295,-1.4418,-9.6992,-0.7987,-0.0020,-0.0091,-0.0205
P1B,B,658062,0.0632,0.0077,0.0000,0.0000,0.9032,-1.4741,-9.7334,-0.8227,-0.0156,-0.0209,-0.0382
P1B,B,658082,0.0576,0.0098,0.0081,0.0000,0.9084,-1.5669,-9.6944,-0.7838,-0.0157,-0.0368,-0.0589
P1B,B,658102,0.0587,0.0115,0.0000,0.0000,0.8436,-1.6346,-9.7579,-0.8430,-0.0037,-0.0386,-0.0508
P1B,B,658122,0.0573,0.0128,0.0064,0.0000,0.9036,-1.6795,-9.7196,-0.8490,-0.0057,-0.0388,-0.0358
P1B,B,658142,0.0573,0.0073,0.0046,0.0062,0.7726,-1.6352,-9.7537,-0.7700,0.0003,-0.0365,-0.0256
P1B,B,658162,0.0602,0.0103,0.0073,0.0000,0.8572,-1.5993,-9.6998,-0.6586,0.0143,-0.0397,-0.0245
P1B,B,658182,0.0587,0.0115,0.0029,0.0000,0.7884,-1.5526,-9.6627,-0.6832,0.0428,-0.0452,-0.0216
P1B,B,658202,0.0610,0.0124,0.0217,0.0000,0.8734,-1.6238,-9.6172,-0.8377,0.0601,-0.0377,-0.0163
P1B,B,658222,0.0628,0.0094,0.0016,0.0000,0.8940,-1.5532,-9.6172,-0.9580,0.0500,-0.0334,-0.0084
P1B,B,658242,0.0595,0.0115,0.0130,0.0000,0.8248,-1.5310,-9.5843,-1.0161,0.0340,-0.0461,-0.0077
P1B,B,658262,0.0591,0.0145,0.0051,0.0078,0.8817,-1.5735,-9.5172,-1.0251,0.0159,-0.0578,-0.0061
P1B,B,658282,0.0606,0.0098,0.0116,0.0000,0.7985,-1.5454,-9.5471,-1.0137,-0.0001,-0.0541,0.0024
P1B,B,658302,0.0591,0.0115,0.0103,0.0000,0.8410,-1.4538,-9.5998,-0.9095,-0.0120,-0.0358,0.0141
P1B,B,658322,0.0602,0.0094,0.0029,0.0000,0.7919,-1.3550,-9.5495,-0.7586,-0.0047,-0.0401,0.0132
P1B,B,658342,0.0617,0.0107,0.0068,0.0000,0.8791,-1.3694,-9.6046,-0.7053,0.0172,-0.0426,0.0080
P1B,B,658362,0.0621,0.0107,0.0046,0.0000,0.8151,-1.4208,-9.6471,-0.7083,0.0151,-0.0336,0.0176
P1B,B,658382,0.0587,0.0115,0.0073,0.0000,0.8979,-1.4155,-9.6130,-0.7910,0.0155,-0.0265,0.0217
P1B,B,658402,0.0591,0.0103,0.0077,0.0000,0.9207,-1.4514,-9.6334,-0.8185,0.0135,-0.0284,0.0266
P1B,B,658422,0.0591,0.0103,0.0064,0.0000,0.8931,-1.4646,-9.6561,-0.8311,0.0049,-0.0296,0.0344
P1B,B,658442,0.0587,0.0086,0.0000,0.0000,0.8401,-1.4424,-9.6687,-0.8413,-0.0083,-0.0277,0.0393
P1B,B,658462,0.0602,0.0081,0.0077,0.0051,0.8506,-1.3694,-9.7250,-0.8646,-0.0212,-0.0245,0.0334
P1B,B,658482,0.0595,0.0098,0.0073,0.0000,0.8199,-1.3544,-9.7328,-0.8065,-0.0396,-0.0368,0.0222
P1B,B,658502,0.0584,0.0137,0.0046,0.0000,0.9023,-1.3682,-9.7328,-0.7586,-0.0350,-0.0434,0.0093
P1B,B,658522,0.0595,0.0094,0.0051,0.0000,0.8467,-1.3909,-9.7328,-0.6778,-0.0244,-0.0308,0.0131
P1B,B,658542,0.0606,0.0115,0.0011,0.0000,0.8318,-1.3897,-9.7717,-0.6970,-0.0063,-0.0068,0.0278
