person_id,label,timestamp,flex1,flex2,flex3,flex4,flex5,ax,ay,az,gx,gy,gz
P1D,D,42803,0.9951,0.9917,1.0000,0.9826,0.9856,-1.1161,-9.6040,-2.2525,0.0036,-0.0538,-0.0183
P1D,D,42823,0.9958,1.0000,1.0000,0.9938,0.9682,-1.2149,-9.5795,-2.2142,0.0072,-0.0605,-0.0236
P1D,D,42843,0.9937,0.9904,0.9966,1.0000,0.9562,-1.2155,-9.5927,-2.2663,0.0131,-0.0388,-0.0011
P1D,D,42863,0.9972,0.9859,1.0000,0.9570,0.9874,-1.0939,-9.6148,-2.2687,0.0165,-0.0538,-0.0023
P1D,D,42883,0.9933,0.9884,0.9826,0.9605,0.9878,-1.1454,-9.5220,-2.2441,0.0240,-0.0666,-0.0211
P1D,D,42903,0.9954,0.9925,1.0000,0.9783,0.9860,-1.2173,-9.5118,-2.2645,0.0308,-0.0512,-0.0095
P1D,D,42923,0.9937,0.9925,0.9741,0.9930,1.0000,-1.0784,-9.5723,-2.3507,0.0349,-0.0441,0.0021
P1D,D,42943,0.9940,0.9871,1.0000,0.9934,0.9388,-1.0556,-9.5645,-2.3585,0.0176,-0.0629,-0.0242
P1D,D,42963,0.9951,0.9892,0.9987,0.9953,0.9749,-1.0879,-9.5208,-2.3327,0.0095,-0.0749,-0.0326
P1D,D,42983,0.9947,0.9921,0.9923,0.9922,1.0000,-1.1999,-9.4549,-2.3214,0.0112,-0.0686,-0.0338
P1D,D,43003,0.9933,0.9904,1.0000,0.9926,0.9731,-1.1849,-9.5998,-2.3327,0.0144,-0.0580,-0.0213
P1D,D,43023,0.9933,0.9896,0.9970,0.9922,0.9735,-1.2460,-9.5040,-2.3256,-0.0021,-0.0368,-0.0159
P1D,D,43043,0.9965,0.9892,0.9970,0.9930,0.9468,-1.2233,-9.5370,-2.3513,0.0029,-0.0017,-0.0036
P1D,D,43063,0.9922,0.9913,0.9944,0.9876,1.0000,-1.1269,-9.5537,-2.2783,-0.0023,-0.0137,-0.0055
P1D,D,43083,0.9929,0.9900,0.9982,0.9899,0.9753,-1.1304,-9.5567,-2.2807,-0.0005,-0.0644,-0.0281
P1D,D,43103,0.9940,0.9892,0.9919,0.9872,1.0000,-1.2412,-9.5232,-2.2220,0.0145,-0.0659,-0.0344
P1D,D,43123,0.9947,0.9888,0.9911,0.9926,0.9735,-1.1921,-9.6471,-2.2555,0.0136,-0.0710,-0.0333
P1D,D,43143,0.9965,0.9904,0.9970,0.9659,1.0000,-1.3179,-9.5208,-2.2543,-0.0120,-0.0933,-0.0337
P1D,D,43163,0.9958,0.9962,0.9957,1.0000,0.9713,-1.3592,-9.4843,-2.2034,0.0131,-0.0533,-0.0199
P1D,D,43183,0.9940,0.9904,0.9949,1.0000,0.9646,-1.1975,-9.5442,-2.2765,0.0265,-0.0392,-0.0083
P1D,D,43203,0.9937,0.9904,1.0000,0.9953,0.9727,-1.2514,-9.5232,-2.2974,0.0289,-0.0454,-0.0155
P1D,D,43223,0.9954,0.9880,1.0000,0.9946,0.9504,-1.1592,-9.5897,-2.3675,0.0266,-0.0480,-0.0197
P1D,D,43243,0.9929,0.9884,1.0000,0.9946,0.9593,-1.2233,-9.4921,-2.3723,0.0004,-0.0737,-0.0232
P1D,D,43263,0.9937,0.9888,0.9961,0.9953,0.9584,-1.2322,-9.5022,-2.3429,0.0025,-0.0652,-0.0135
P1D,D,43283,0.9926,0.9929,0.9949,0.9903,0.9709,-1.1370,-9.5028,-2.2483,0.0095,-0.0560,-0.0161
P1D,D,43303,0.9937,0.9904,0.9970,0.9915,0.9722,-1.2658,-9.5777,-2.2866,0.0116,-0.0509,-0.0181
P1D,D,43323,0.9940,0.9876,0.9940,0.9911,0.9998,-1.2065,-9.4891,-2.2268,0.0100,-0.0302,-0.0095
P1D,D,43343,0.9951,0.9871,1.0000,1.0000,0.9303,-1.1263,-9.5549,-2.2843,0.0167,-0.0526,-0.0203
P1D,D,43363,0.9937,0.9896,0.9940,0.9926,0.9664,-1.3119,-9.5388,-2.2854,0.0083,-0.0735,-0.0332
P1D,D,43383,0.9933,0.9880,0.9995,0.9919,0.9259,-1.3670,-9.5262,-2.2747,0.0153,-0.0241,-0.0023
P1D,D,43403,0.9922,0.9888,0.9911,0.9938,1.0000,-1.2083,-9.5250,-2.2920,0.0233,-0.0161,0.0120
P1D,D,43423,0.9951,0.9871,0.9927,0.9899,0.9998,-1.2436,-9.5669,-2.3477,0.0161,-0.0216,0.0063
P1D,D,43443,0.9919,0.9896,1.0000,0.9891,0.9620,-1.1945,-9.5130,-2.2908,0.0116,-0.0273,-0.0001
P1D,D,43463,0.9879,0.9892,0.9966,1.0000,0.9468,-1.2676,-9.5424,-2.2561,0.0113,-0.0553,-0.0039
P1D,D,43483,0.9933,0.9904,1.0000,0.9888,1.0000,-1.2622,-9.5657,-2.3274,0.0087,-0.0442,0.0039
P1D,D,43503,0.9922,0.9913,1.0000,0.9930,0.9646,-1.2047,-9.5208,-2.3136,0.0109,-0.0320,0.0043
P1D,D,56343,0.6341,0.6294,0.8324,0.0231,0.4501,1.9220,-9.0939,3.1219,0.0037,-0.0228,-0.0161
P1D,D,56383,0.6352,0.6314,0.8108,0.0000,0.4323,1.7208,-9.1214,3.0872,0.0541,-0.0691,-0.0494
P1D,D,56403,0.6338,0.6298,0.8290,0.0224,0.3896,1.5586,-9.1364,3.0602,0.0713,-0.0729,-0.0540
P1D,D,56423,0.6345,0.6310,0.8371,0.0000,0.4265,1.5633,-9.1412,2.9171,0.0870,-0.0767,-0.0524
P1D,D,56443,0.6352,0.6314,0.8163,0.0000,0.4292,1.4268,-9.1759,2.7387,0.0797,-0.0770,-0.0517
P1D,D,56463,0.6348,0.6294,0.8557,0.0262,0.4145,1.4352,-9.1849,2.6603,0.0654,-0.0750,-0.0446
P1D,D,56483,0.6330,0.6372,0.7998,0.0212,0.4016,1.3771,-9.2112,2.6525,0.0534,-0.0870,-0.0345
P1D,D,56503,0.6348,0.6323,0.8451,0.0235,0.4279,1.3280,-9.2621,2.6782,0.0434,-0.0810,-0.0293
P1D,D,56523,0.6334,0.6323,0.8282,0.0235,0.3423,1.3310,-9.2430,2.6627,0.0281,-0.0608,-0.0296
P1D,D,56543,0.6320,0.6318,0.8459,0.0421,0.4150,1.2885,-9.2106,2.5980,0.0268,-0.0332,-0.0366
P1D,D,56563,0.6363,0.6273,0.7960,0.0142,0.4270,1.2939,-9.3220,2.5549,0.0116,-0.0256,-0.0361
P1D,D,56583,0.6352,0.6310,0.8269,0.0231,0.4288,1.2634,-9.3029,2.5752,-0.0111,-0.0342,-0.0312
P1D,D,56603,0.6352,0.6306,0.8371,0.0208,0.3731,1.1586,-9.2969,2.5543,-0.0236,-0.0321,-0.0229
P1D,D,56623,0.6334,0.6314,0.8290,0.0212,0.3802,1.2418,-9.2897,2.5321,-0.0436,-0.0036,-0.0113
P1D,D,56643,0.6352,0.6335,0.8311,0.0255,0.3909,1.4616,-9.3178,2.5986,-0.0524,0.0083,-0.0001
P1D,D,56663,0.6460,0.6285,0.8349,0.0220,0.3922,1.5406,-9.1819,2.7064,-0.0727,-0.0013,-0.0084
P1D,D,56683,0.6341,0.6323,0.8531,0.0518,0.4158,1.6310,-9.1747,2.7674,-0.0793,0.0229,-0.0212
P1D,D,56703,0.6330,0.6302,0.7943,0.0158,0.4248,1.7023,-9.1130,2.9147,-0.0969,0.0156,-0.0281
P1D,D,56723,0.6345,0.6376,0.8282,0.0231,0.4332,1.7280,-9.1478,3.0483,-0.1087,-0.0092,-0.0306
P1D,D,56743,0.6345,0.6343,0.8108,0.0010,0.4421,1.6633,-9.1771,3.2782,-0.1045,-0.0133,-0.0478
P1D,D,56763,0.6295,0.6281,0.8354,0.0363,0.3962,1.6226,-9.0089,3.3512,-0.0726,-0.0055,-0.0592
P1D,D,56783,0.6327,0.6269,0.8159,0.0224,0.4501,1.4628,-8.9693,3.3087,-0.0226,-0.0015,-0.0734
P1D,D,56803,0.6338,0.6265,0.8337,0.0340,0.4840,1.3388,-8.9825,3.1985,0.0109,0.0085,-0.0737
P1D,D,56823,0.6334,0.6327,0.8252,0.0607,0.4212,1.2891,-9.0651,3.0944,0.0045,-0.0172,-0.0616
P1D,D,56843,0.6330,0.6314,0.8278,0.0227,0.4279,1.1179,-9.1172,3.0063,-0.0123,-0.0690,-0.0441
P1D,D,56863,0.6381,0.6314,0.8269,0.0247,0.4377,0.9257,-9.0586,3.0093,-0.0160,-0.0711,-0.0301
P1D,D,56883,0.6334,0.6257,0.8379,0.0720,0.4225,0.9969,-9.1460,3.0165,-0.0136,-0.0318,-0.0224
P1D,D,56903,0.6345,0.6277,0.8142,0.0212,0.4346,1.0245,-9.1352,3.0381,-0.0096,-0.0426,-0.0256
P1D,D,56923,0.6330,0.6261,0.8307,0.0165,0.3566,0.8604,-9.1101,3.0105,0.0088,-0.0249,-0.0242
P1D,D,56943,0.6345,0.6302,0.8278,0.0224,0.4475,0.9448,-9.0963,2.9105,0.0053,0.0115,-0.0053
P1D,D,56963,0.6327,0.6314,0.8214,0.0243,0.4475,1.0526,-9.1184,2.8327,-0.0031,0.0099,0.0220
P1D,D,56983,0.6327,0.6306,0.8163,0.0227,0.4386,1.1981,-9.1645,2.8291,-0.0469,0.0039,0.0337
P1D,D,57003,0.6341,0.6290,0.8159,0.0096,0.4172,1.3071,-9.1352,2.9495,-0.0690,0.0128,0.0389
P1D,D,57023,0.6359,0.6290,0.8756,0.0274,0.3695,1.3951,-9.1394,3.0758,-0.0787,0.0292,0.0317
P1D,D,57043,0.6348,0.6302,0.7863,0.0038,0.4052,1.4927,-9.1023,3.0764,-0.0721,0.0433,0.0442
P1D,D,57063,0.6345,0.6318,0.8041,0.0220,0.4506,1.6238,-9.0711,3.1297,-0.0346,0.0300,0.0325
P1D,D,57083,0.6338,0.6306,0.8079,0.0247,0.4328,1.5178,-9.1352,3.0884,-0.0183,0.0292,0.0238
P1D,D,57103,0.6338,0.6306,0.8121,0.0235,0.4461,1.6011,-9.0747,3.0447,-0.0063,0.0620,0.0125
P1D,D,57123,0.6348,0.6318,0.8206,0.0220,0.4631,1.7124,-9.0993,3.0644,0.0031,0.0478,0.0067
P1D,D,57143,0.6356,0.6318,0.8176,0.0239,0.4546,1.6292,-9.0705,3.0638,-0.0179,-0.0031,0.0052
P1D,D,57163,0.6330,0.6261,0.8286,0.0235,0.3775,1.5568,-9.1262,3.0740,-0.0233,-0.0032,0.0085
P1D,D,57183,0.6352,0.6298,0.8201,0.0224,0.4519,1.5723,-9.0640,3.1021,-0.0151,-0.0115,0.0101
P1D,D,57203,0.6352,0.6327,0.8337,0.0212,0.3731,1.5628,-9.1364,3.0854,0.0092,-0.0188,0.0109
P1D,D,57223,0.6320,0.6314,0.8227,0.0371,0.4185,1.6394,-9.1178,3.0806,0.0092,-0.0167,0.0075
P1D,D,57243,0.6352,0.6285,0.8320,0.0258,0.4056,1.7190,-9.1681,3.0680,0.0023,-0.0345,0.0011
P1D,D,57263,0.6334,0.6277,0.8531,0.0320,0.4034,1.6532,-9.0855,3.0411,-0.0011,-0.0441,-0.0153
P1D,D,57283,0.6348,0.6290,0.8455,0.0301,0.4158,1.6484,-9.1520,3.0926,0.0199,-0.0199,-0.0264
P1D,D,57303,0.6320,0.6269,0.8345,0.0251,0.3704,1.6568,-9.1358,3.0680,0.0159,-0.0262,-0.0294
P1D,D,57323,0.6330,0.6261,0.7897,0.0165,0.4101,1.5957,-9.1166,3.0824,0.0144,-0.0469,-0.0273
P1D,D,57343,0.6316,0.6277,0.8506,0.0262,0.3949,1.5598,-9.1376,3.0914,0.0073,-0.0538,-0.0281
P1D,D,57363,0.6338,0.6269,0.8442,0.0286,0.4016,1.4658,-9.0646,3.1572,0.0112,-0.0562,-0.0309
P1D,D,57383,0.6341,0.6281,0.8248,0.0293,0.4519,1.4262,-9.0616,3.0914,0.0301,-0.0536,-0.0350
P1D,D,57403,0.6359,0.6257,0.8459,0.0212,0.4577,1.3490,-9.1166,2.9932,0.0417,-0.0602,-0.0389
P1D,D,57423,0.6359,0.6302,0.8201,0.0239,0.4341,1.2676,-9.1448,2.9620,0.0341,-0.0601,-0.0325
P1D,D,57443,0.6348,0.6261,0.8286,0.0286,0.4328,1.2688,-9.1154,2.9219,0.0258,-0.0565,-0.0217
P1D,D,57463,0.6330,0.6273,0.8210,0.0224,0.4377,1.2562,-9.1382,2.8986,0.0221,-0.0454,-0.0216
P1D,D,57483,0.6366,0.6310,0.8218,0.0177,0.4493,1.3268,-9.1316,2.9764,0.0143,-0.0454,-0.0101
P1D,D,57503,0.6352,0.6294,0.8244,0.0212,0.4493,1.3550,-9.1226,2.9908,-0.0076,-0.0521,-0.0043
P1D,D,57523,0.6370,0.6244,0.8392,0.0235,0.3762,1.3688,-9.0747,3.0710,-0.0089,-0.0626,0.0048
P1D,D,57543,0.6330,0.6290,0.8379,0.0239,0.3980,1.4029,-9.1065,3.1489,0.0044,-0.0640,0.0053
P1D,D,57563,0.6334,0.6290,0.8146,0.0189,0.4127,1.4424,-9.1089,3.1381,0.0099,-0.0512,0.0028
P1D,D,57583,0.6330,0.6277,0.8129,0.0235,0.4586,1.4406,-9.1053,3.1423,0.0129,-0.0501,0.0001
P1D,D,57603,0.6345,0.6269,0.7973,0.0131,0.4078,1.3442,-9.0747,3.0620,0.0230,-0.0468,-0.0036
P1D,D,57623,0.6330,0.6273,0.8383,0.0274,0.3913,1.3861,-9.1322,2.9854,0.0097,-0.0338,0.0007
P1D,D,57643,0.6341,0.6310,0.8024,0.0231,0.3891,1.4478,-9.1041,2.9656,-0.0008,-0.0488,0.0028
P1D,D,57663,0.6334,0.6273,0.8269,0.0243,0.4653,1.3789,-9.1442,3.0105,-0.0041,-0.0541,0.0019
P1D,D,57683,0.6327,0.6253,0.8049,0.0204,0.4083,1.4430,-9.1268,3.0459,-0.0168,-0.0328,-0.0009
P1D,D,57703,0.6341,0.6306,0.8218,0.0239,0.4350,1.4598,-9.0651,3.0986,0.0007,-0.0374,-0.0060
P1D,D,57723,0.6327,0.6257,0.8282,0.0293,0.4546,1.3316,-9.1166,3.0782,0.0085,-0.0410,-0.0113
P1D,D,57743,0.6352,0.6224,0.8299,0.0251,0.3860,1.3101,-9.0640,3.0560,0.0025,-0.0091,-0.0093
P1D,D,57763,0.6327,0.6273,0.8184,0.0076,0.4381,1.4149,-9.0783,2.9884,0.0009,-0.0033,-0.0088
P1D,D,57783,0.6330,0.6302,0.8235,0.0200,0.4412,1.3706,-9.1184,3.0087,-0.0115,-0.0274,0.0004
P1D,D,57803,0.6327,0.6248,0.8303,0.0266,0.3909,1.3310,-9.1178,3.0465,-0.0077,-0.0165,0.0081
P1D,D,57823,0.6348,0.6273,0.8265,0.0344,0.4145,1.4382,-9.0753,3.0938,-0.0101,0.0053,0.0068
P1D,D,57843,0.6334,0.6269,0.8320,0.0212,0.3677,1.5717,-9.1154,3.1129,0.0053,0.0009,0.0107
P1D,D,57863,0.6348,0.6240,0.8565,0.0344,0.4199,1.6208,-9.0867,3.1770,0.0011,-0.0269,0.0080
P1D,D,57883,0.6352,0.6240,0.8565,0.0305,0.4234,1.5951,-9.0532,3.1303,-0.0081,-0.0380,0.0043
P1D,D,57903,0.6359,0.6244,0.8189,0.0000,0.4243,1.5681,-9.0448,3.1512,-0.0009,-0.0294,-0.0017
P1D,D,57923,0.6323,0.6273,0.7694,0.0150,0.4132,1.4873,-9.0316,3.1776,0.0128,-0.0172,-0.0060
P1D,D,57943,0.6330,0.6285,0.8311,0.0038,0.4421,1.5089,-9.0466,3.1956,0.0276,-0.0143,-0.0100
P1D,D,57963,0.6345,0.6248,0.8514,0.0448,0.4252,1.4771,-9.1142,3.1153,0.0454,-0.0442,-0.0172
P1D,D,57983,0.6374,0.6277,0.8286,0.0243,0.4399,1.3568,-9.1077,3.0453,0.0316,-0.0549,-0.0032
P1D,D,58003,0.6330,0.6253,0.8442,0.0766,0.4176,1.3676,-9.0771,3.0034,0.0550,-0.0469,0.0041
P1D,D,58023,0.6320,0.6257,0.8282,0.0293,0.3722,1.4484,-9.1951,2.9872,0.0636,-0.0300,0.0063
P1D,D,58043,0.6313,0.6253,0.8235,0.0208,0.4363,1.5436,-9.1304,2.8914,0.0344,-0.0400,0.0095
P1D,D,58063,0.6316,0.6244,0.8481,0.0293,0.3922,1.4658,-9.1286,2.9824,0.0360,-0.0345,-0.0121
P1D,D,58083,0.6287,0.6240,0.8269,0.0251,0.4559,1.4634,-9.1250,2.9884,0.0080,-0.0119,-0.0199
P1D,D,58103,0.6298,0.6244,0.8218,0.0231,0.4510,1.5681,-9.1460,2.9567,-0.0128,-0.0324,-0.0171
P1D,D,58123,0.6316,0.6228,0.8282,0.0251,0.3918,1.4035,-9.1077,3.0411,-0.0075,-0.0610,-0.0173
P1D,D,58143,0.6313,0.6146,0.8430,0.0270,0.4176,1.2915,-9.0897,3.0602,0.0017,-0.0504,-0.0085
P1D,D,58163,0.6305,0.6248,0.8210,0.0301,0.4092,1.3598,-9.1101,3.0956,0.0205,-0.0155,-0.0081
P1D,D,58183,0.6309,0.6248,0.8290,0.0421,0.4172,1.4538,-9.1496,3.0872,0.0191,-0.0176,-0.0068
P1D,D,58203,0.6298,0.6224,0.8299,0.0247,0.3958,1.4095,-9.1053,3.0087,0.0147,-0.0504,-0.0005
P1D,D,58223,0.6298,0.6244,0.8121,0.0231,0.4653,1.3658,-9.1406,2.9668,0.0076,-0.0369,-0.0020
P1D,D,58243,0.6305,0.6220,0.8294,0.0000,0.4261,1.5029,-9.1250,2.9513,-0.0007,-0.0121,-0.0017
P1D,D,58263,0.6309,0.6236,0.8256,0.0251,0.4595,1.5322,-9.1023,2.9692,0.0013,-0.0344,-0.0045
P1D,D,58283,0.6305,0.6207,0.8265,0.0255,0.3998,1.4538,-9.1077,3.0034,-0.0049,-0.0314,-0.0113
P1D,D,58303,0.6313,0.6232,0.8451,0.0355,0.3896,1.4430,-9.1065,3.0465,-0.0128,-0.0209,-0.0125
P1D,D,58323,0.6320,0.6236,0.8481,0.0274,0.3789,1.4220,-9.1035,3.0686,-0.0035,-0.0270,-0.0104
P1D,D,58343,0.6302,0.6277,0.8451,0.0406,0.4216,1.3574,-9.0556,3.0926,-0.0036,-0.0354,0.0000
P1D,D,58363,0.6284,0.6244,0.8316,0.0251,0.3664,1.4131,-9.1041,3.0998,0.0009,-0.0187,0.0040
P1D,D,58383,0.6295,0.6253,0.8201,0.0258,0.4501,1.5406,-9.1071,3.0878,-0.0044,-0.0212,0.0072
P1D,D,58403,0.6302,0.6236,0.8341,0.0251,0.3753,1.5053,-9.1059,3.0620,-0.0084,-0.0478,0.0108
P1D,D,58423,0.6295,0.6232,0.8273,0.0340,0.4190,1.5119,-9.0897,3.0878,-0.0035,-0.0469,0.0069
P1D,D,58443,0.6302,0.6240,0.8383,0.0282,0.3633,1.5226,-9.1226,3.0830,0.0025,-0.0333,-0.0053
P1D,D,58463,0.6305,0.6285,0.8146,0.0000,0.4234,1.5681,-9.0711,3.0824,-0.0012,-0.0125,-0.0085
P1D,D,58483,0.6305,0.6232,0.8557,0.0534,0.4199,1.5292,-9.0807,3.0950,-0.0028,-0.0377,-0.0139
P1D,D,58503,0.6302,0.6228,0.8273,0.0115,0.4087,1.3682,-9.0196,3.1010,-0.0003,-0.0338,-0.0152
P1D,D,58523,0.6305,0.6240,0.8311,0.0251,0.3891,1.4580,-9.0484,3.1243,0.0063,-0.0215,-0.0116
P1D,D,58543,0.6280,0.6232,0.8320,0.0243,0.3579,1.3694,-9.0975,3.1141,0.0089,-0.0518,-0.0061
P1D,D,58563,0.6295,0.6220,0.8294,0.0724,0.4181,1.3676,-9.0711,3.1614,0.0179,-0.0364,0.0060
P1D,D,58583,0.6277,0.6228,0.8261,0.0177,0.4314,1.5424,-9.0771,3.2123,0.0124,-0.0272,0.0075
P1D,D,58603,0.6284,0.6236,0.8252,0.0255,0.4867,1.6184,-9.0927,3.2213,0.0196,-0.0525,-0.0017
P1D,D,58623,0.6298,0.6236,0.7909,0.0200,0.4680,1.5705,-9.0388,3.1554,0.0262,-0.0544,-0.0063
P1D,D,58643,0.6295,0.6232,0.7990,0.0196,0.4114,1.5418,-9.0406,3.0686,0.0456,-0.0513,-0.0136
P1D,D,58663,0.6295,0.6244,0.8113,0.0224,0.4417,1.5077,-9.1011,3.0453,0.0458,-0.0574,-0.0209
P1D,D,58683,0.6323,0.6240,0.8151,0.0231,0.4720,1.4681,-9.1364,3.0249,0.0430,-0.0650,-0.0167
P1D,D,58703,0.6291,0.6240,0.8074,0.0220,0.4328,1.3706,-9.1508,2.9878,0.0286,-0.0541,-0.0240
P1D,D,58723,0.6291,0.6261,0.8502,0.0499,0.4221,1.4053,-9.1077,2.9333,0.0320,-0.0306,-0.0248
P1D,D,58743,0.6298,0.6228,0.8180,0.0072,0.4078,1.4574,-9.1160,2.9758,0.0365,-0.0456,-0.0265
P1D,D,58763,0.6302,0.6248,0.8163,0.0258,0.3829,1.3741,-9.0981,2.9441,0.0226,-0.0481,-0.0250
P1D,D,58783,0.6298,0.6265,0.8290,0.0538,0.4181,1.4107,-9.1011,2.9537,0.0234,-0.0333,-0.0188
P1D,D,58803,0.6305,0.6232,0.7914,0.0193,0.4292,1.4436,-9.1687,3.0399,0.0177,-0.0393,-0.0107
P1D,D,58823,0.6251,0.6236,0.7986,0.0000,0.4341,1.4364,-9.1184,3.0740,-0.0017,-0.0526,-0.0052
P1D,D,58843,0.6309,0.6253,0.8311,0.0247,0.3878,1.4202,-9.0777,3.0614,0.0179,-0.0497,-0.0057
P1D,D,58863,0.6280,0.6232,0.8286,0.0000,0.4199,1.4322,-9.1514,3.0626,0.0356,-0.0458,-0.0053
P1D,D,58883,0.6302,0.6253,0.8316,0.0375,0.4007,1.4837,-9.1484,2.9722,0.0396,-0.0524,0.0015
P1D,D,58903,0.6338,0.6224,0.8227,0.0266,0.4510,1.4472,-9.1669,2.8980,0.0361,-0.0532,-0.0055
P1D,D,58923,0.6305,0.6253,0.8146,0.0200,0.4426,1.5077,-9.2029,2.8758,0.0205,-0.0334,-0.0084
P1D,D,58943,0.6305,0.6290,0.7876,0.0181,0.4573,1.5993,-9.1813,2.9165,0.0009,-0.0598,-0.0135
P1D,D,58963,0.6313,0.6232,0.8413,0.0336,0.4029,1.4352,-9.2041,3.0459,0.0051,-0.0747,-0.0179
P1D,D,58983,0.6305,0.6248,0.8146,0.0000,0.4234,1.4364,-9.1328,3.0674,0.0181,-0.0508,-0.0216
P1D,D,59003,0.6295,0.6244,0.8730,0.0262,0.3766,1.4987,-9.1627,3.0501,0.0498,-0.0652,-0.0095
P1D,D,59023,0.6313,0.6244,0.8142,0.0324,0.4412,1.3502,-9.1466,2.8746,0.0424,-0.0823,-0.0212
P1D,D,59043,0.6287,0.6265,0.8358,0.0262,0.3709,1.2628,-9.0909,2.7920,0.0298,-0.0622,-0.0213
P1D,D,59063,0.6302,0.6236,0.8290,0.0255,0.4016,1.1957,-9.1316,2.7477,0.0151,-0.0706,-0.0241
P1D,D,59083,0.6291,0.6220,0.8286,0.0258,0.4573,1.1227,-9.1717,2.7645,-0.0104,-0.0650,-0.0185
P1D,D,59103,0.6298,0.6216,0.8248,0.0410,0.4239,1.1394,-9.1921,2.8201,-0.0409,-0.0529,-0.0029
P1D,D,59123,0.6291,0.6236,0.8290,0.0282,0.3633,1.2257,-9.1705,2.9501,-0.0683,-0.0489,0.0145
P1D,D,59143,0.6302,0.6236,0.8320,0.0262,0.3905,1.4101,-9.0801,3.0381,-0.0649,-0.0256,0.0326
P1D,D,59163,0.6323,0.6216,0.8294,0.0712,0.4203,1.6130,-9.0783,3.1261,-0.0582,0.0003,0.0358
P1D,D,59183,0.6287,0.6265,0.8341,0.0243,0.3490,1.7244,-9.0178,3.1997,-0.0657,-0.0143,0.0356
P1D,D,59203,0.6302,0.6228,0.8138,0.0119,0.4118,1.6562,-8.9628,3.2662,-0.0725,-0.0278,0.0215
P1D,D,59223,0.6287,0.6269,0.8286,0.0000,0.4256,1.5999,-8.9538,3.3788,-0.0682,-0.0061,0.0069
P1D,D,59243,0.6280,0.6228,0.7986,0.0235,0.3285,1.5867,-8.9771,3.4225,-0.0481,-0.0087,0.0001
P1D,D,59263,0.6334,0.6236,0.8455,0.0278,0.3989,1.4604,-8.9526,3.3548,-0.0189,-0.0345,-0.0049
P1D,D,59283,0.6287,0.6211,0.8058,0.0270,0.4172,1.3268,-8.9646,3.3075,0.0152,-0.0284,-0.0112
P1D,D,59303,0.6316,0.6253,0.8303,0.0317,0.3847,1.3484,-9.0214,3.2117,0.0238,-0.0143,-0.0120
P1D,D,59323,0.6280,0.6228,0.8269,0.0243,0.4288,1.3574,-9.0490,3.1602,0.0245,-0.0211,-0.0112
P1D,D,59343,0.6287,0.6211,0.8210,0.0258,0.4395,1.3436,-9.0460,3.0740,0.0193,-0.0236,-0.0096
P1D,D,59363,0.6298,0.6265,0.8294,0.0212,0.3869,1.3747,-9.0825,3.1237,0.0155,-0.0253,-0.0025
P1D,D,59383,0.6298,0.6240,0.8231,0.0274,0.4408,1.3915,-9.1011,3.1105,0.0128,-0.0217,-0.0023
P1D,D,59403,0.6295,0.6211,0.7956,0.0231,0.4448,1.4550,-9.1101,3.1027,0.0095,-0.0036,0.0011
P1D,D,59423,0.6298,0.6158,0.8269,0.0266,0.3878,1.5448,-9.0562,3.1548,0.0060,-0.0116,0.0001
P1D,D,59443,0.6302,0.6248,0.8278,0.0262,0.4060,1.5328,-9.0759,3.1141,0.0149,-0.0196,-0.0077
P1D,D,59463,0.6309,0.6236,0.8286,0.0289,0.3945,1.5675,-9.0933,3.1123,0.0077,-0.0067,-0.0161
P1D,D,59483,0.6266,0.6232,0.8654,0.0348,0.4203,1.6298,-9.0903,3.1554,0.0157,-0.0193,-0.0189
P1D,D,59503,0.6287,0.6281,0.8557,0.0286,0.3856,1.5148,-9.0741,3.1249,0.0084,-0.0353,-0.0272
P1D,D,59523,0.6277,0.6257,0.8024,0.0138,0.4109,1.4604,-9.0771,3.1734,0.0215,-0.0184,-0.0250
P1D,D,59543,0.6298,0.6244,0.8438,0.0456,0.3967,1.5005,-9.0909,3.1752,0.0278,-0.0264,-0.0230
P1D,D,59563,0.6298,0.6224,0.8519,0.0239,0.4439,1.4101,-9.0795,3.1219,0.0304,-0.0421,-0.0221
P1D,D,59583,0.6334,0.6257,0.8536,0.0262,0.4403,1.3801,-9.1142,3.1105,0.0304,-0.0305,-0.0177
P1D,D,59603,0.6295,0.6318,0.8371,0.0526,0.4158,1.4466,-9.1005,3.0734,0.0270,-0.0353,-0.0132
P1D,D,59623,0.6284,0.6248,0.8265,0.0247,0.4444,1.3819,-9.1119,3.0548,0.0288,-0.0516,-0.0165
P1D,D,59643,0.6316,0.6285,0.8235,0.0255,0.4421,1.3113,-9.1286,3.0333,0.0370,-0.0421,-0.0176
P1D,D,59663,0.6302,0.6240,0.8362,0.0255,0.3998,1.3658,-9.1292,3.0237,0.0290,-0.0440,-0.0065
P1D,D,59683,0.6287,0.6285,0.8244,0.0266,0.4595,1.3640,-9.1256,2.9908,0.0289,-0.0504,0.0047
P1D,D,59703,0.6291,0.6228,0.8320,0.0266,0.3766,1.3981,-9.1508,2.9728,0.0249,-0.0349,-0.0015
P1D,D,59723,0.6277,0.6253,0.8476,0.0282,0.3847,1.4687,-9.1178,2.9770,0.0176,-0.0254,0.0005
P1D,D,59743,0.6298,0.6224,0.7935,0.0003,0.4475,1.4951,-9.1328,3.0057,0.0076,-0.0402,-0.0057
P1D,D,59763,0.6287,0.6269,0.8239,0.0255,0.4573,1.4580,-9.1220,3.0207,-0.0007,-0.0450,-0.0031
P1D,D,59783,0.6295,0.6269,0.8129,0.0231,0.4479,1.4687,-9.1256,3.0249,-0.0061,-0.0460,0.0036
P1D,D,59803,0.6298,0.6244,0.7977,0.0000,0.4310,1.4795,-9.0855,3.0734,-0.0023,-0.0480,0.0004
P1D,D,59823,0.6302,0.6236,0.8290,0.0061,0.4136,1.5005,-9.0604,3.0704,0.0005,-0.0374,-0.0065
P1D,D,59843,0.6323,0.6228,0.7969,0.0000,0.4314,1.4789,-9.0634,3.1075,0.0052,-0.0334,-0.0131
P1D,D,59863,0.6287,0.6261,0.8316,0.0000,0.4421,1.4214,-9.0879,3.1159,-0.0009,-0.0389,-0.0097
P1D,D,59883,0.6313,0.6236,0.7914,0.0138,0.3878,1.3999,-9.0651,3.0860,-0.0021,-0.0412,-0.0083
P1D,D,59903,0.6305,0.6261,0.8392,0.0999,0.4261,1.3711,-9.0484,3.1117,0.0081,-0.0506,-0.0039
P1D,D,59923,0.6302,0.6273,0.8239,0.0270,0.4733,1.2897,-9.0705,3.1495,0.0045,-0.0617,0.0052
P1D,D,59943,0.6295,0.6257,0.8252,0.0251,0.3624,1.3747,-9.0580,3.1728,0.0125,-0.0377,0.0117
P1D,D,59963,0.6287,0.6248,0.8324,0.0255,0.3646,1.5023,-9.0580,3.1806,0.0176,-0.0269,0.0207
P1D,D,59983,0.6291,0.6261,0.8290,0.0262,0.3882,1.4837,-9.0562,3.1692,0.0346,-0.0381,0.0336
P1D,D,60003,0.6291,0.6261,0.8294,0.0293,0.3949,1.5466,-9.0711,3.1596,0.0416,-0.0436,0.0274
P1D,D,60023,0.6291,0.6248,0.8273,0.0115,0.4265,1.5795,-9.1274,3.0602,0.0321,-0.0448,0.0143
P1D,D,60043,0.6316,0.6273,0.8413,0.0607,0.4279,1.5807,-9.1328,3.0046,0.0071,-0.0536,0.0037
P1D,D,60063,0.6298,0.6265,0.8201,0.0251,0.4662,1.5208,-9.1077,2.9830,-0.0171,-0.0477,-0.0101
P1D,D,60083,0.6284,0.6232,0.8286,0.0255,0.3766,1.5442,-9.1077,3.0189,-0.0266,-0.0445,-0.0181
P1D,D,60103,0.6295,0.6244,0.8506,0.0433,0.4216,1.4382,-9.0568,3.0471,-0.0171,-0.0476,-0.0212
P1D,D,60123,0.6298,0.6265,0.8286,0.0251,0.4060,1.4825,-9.1023,3.1542,-0.0007,-0.0541,-0.0184
P1D,D,60143,0.6305,0.6195,0.8514,0.0363,0.3677,1.4298,-9.0388,3.2009,0.0032,-0.0725,-0.0169
P1D,D,60163,0.6287,0.6195,0.8451,0.0328,0.4199,1.3885,-9.0490,3.1944,0.0157,-0.0526,-0.0266
P1D,D,60183,0.6298,0.6240,0.8294,0.0247,0.3798,1.3759,-9.0717,3.1578,0.0173,-0.0306,-0.0284
P1D,D,60203,0.6334,0.6273,0.8269,0.0262,0.4363,1.3532,-9.0478,3.1105,0.0053,-0.0422,-0.0268
P1D,D,60223,0.6284,0.6240,0.8294,0.0111,0.4016,1.2795,-9.0879,3.0944,0.0265,-0.0518,-0.0212
P1D,D,60243,0.6309,0.6240,0.8273,0.0278,0.4524,1.2574,-9.0933,3.0980,0.0167,-0.0314,-0.0120
P1D,D,60263,0.6302,0.6244,0.8387,0.0293,0.3793,1.3382,-9.0723,3.0626,0.0120,-0.0304,-0.0099
P1D,D,60283,0.6302,0.6248,0.8244,0.0247,0.4430,1.3215,-9.0759,3.0495,0.0109,-0.0477,-0.0064
P1D,D,60303,0.6295,0.6285,0.8256,0.0251,0.4666,1.3095,-9.0831,3.0231,0.0028,-0.0336,0.0029
P1D,D,60323,0.6305,0.6228,0.8599,0.0289,0.3833,1.4664,-9.0927,3.0836,-0.0015,-0.0213,0.0052
P1D,D,60343,0.6295,0.6294,0.7948,0.0224,0.4452,1.5334,-9.0747,3.0968,-0.0043,-0.0336,0.0099
P1D,D,60363,0.6291,0.6244,0.8155,0.0247,0.4136,1.5101,-9.0316,3.1560,-0.0021,-0.0408,0.0044
P1D,D,60383,0.6280,0.6228,0.8239,0.0282,0.4310,1.5137,-9.0460,3.2231,0.0073,-0.0297,-0.0007
P1D,D,60403,0.6305,0.6244,0.8036,0.0162,0.4359,1.5508,-9.0795,3.2045,0.0113,-0.0318,-0.0001
P1D,D,60423,0.6295,0.6232,0.8379,0.0255,0.4123,1.5795,-9.0699,3.2147,0.0173,-0.0469,-0.0035
P1D,D,60443,0.6291,0.6244,0.7986,0.0270,0.4591,1.5334,-9.0478,3.1722,0.0204,-0.0529,-0.0055
P1D,D,60463,0.6291,0.6277,0.8265,0.0619,0.4203,1.5418,-9.0915,3.1536,0.0336,-0.0481,-0.0140
P1D,D,60483,0.6298,0.6240,0.8028,0.0262,0.4461,1.4981,-9.1095,3.1267,0.0294,-0.0634,-0.0173
P1D,D,60503,0.6284,0.6228,0.8193,0.0282,0.4613,1.3646,-9.0586,3.0836,0.0317,-0.0589,-0.0213
P1D,D,60523,0.6287,0.6232,0.8159,0.0262,0.4916,1.3759,-9.1232,3.0734,0.0365,-0.0381,-0.0233
P1D,D,60543,0.6280,0.6228,0.8176,0.0262,0.4840,1.3508,-9.1484,3.0022,0.0349,-0.0564,-0.0149
P1D,D,60563,0.6291,0.6244,0.8299,0.0247,0.3918,1.2927,-9.1125,2.9794,0.0270,-0.0645,-0.0064
P1D,D,60583,0.6287,0.6261,0.8231,0.0262,0.4346,1.3298,-9.0693,2.9668,0.0270,-0.0449,-0.0040
P1D,D,60603,0.6302,0.6236,0.8299,0.0274,0.3784,1.4478,-9.1514,3.0135,0.0148,-0.0461,0.0013
P1D,D,60623,0.6295,0.6244,0.8104,0.0251,0.4546,1.4226,-9.1645,3.0572,0.0041,-0.0530,-0.0013
P1D,D,60643,0.6280,0.6240,0.8569,0.0386,0.4372,1.4795,-9.1202,3.1273,0.0041,-0.0450,-0.0021
P1D,D,60663,0.6284,0.6285,0.7969,0.0006,0.4145,1.5071,-9.0933,3.1327,0.0261,-0.0492,-0.0057
P1D,D,60683,0.6277,0.6228,0.8269,0.0274,0.4550,1.5065,-9.1837,3.1734,0.0369,-0.0445,-0.0107
P1D,D,60703,0.6305,0.6253,0.8269,0.0231,0.3909,1.5915,-9.0556,3.1483,0.0429,-0.0400,-0.0218
P1D,D,60723,0.6298,0.6240,0.8278,0.0057,0.4020,1.5526,-9.0544,3.1297,0.0666,-0.0476,-0.0410
P1D,D,60743,0.6287,0.6248,0.8430,0.0266,0.3570,1.3939,-9.0963,3.0231,0.0661,-0.0465,-0.0533
P1D,D,60763,0.6287,0.6236,0.8404,0.0499,0.4305,1.2718,-9.0771,3.0046,0.0634,-0.0794,-0.0426
P1D,D,60783,0.6255,0.6207,0.8265,0.0266,0.3922,1.0394,-9.0783,2.9525,0.0572,-0.1034,-0.0224
P1D,D,60803,0.6302,0.6232,0.8210,0.0274,0.4279,1.0340,-9.1424,2.9435,0.0408,-0.0770,-0.0105
P1D,D,60823,0.6298,0.6253,0.8286,0.0251,0.4181,1.2119,-9.1472,2.9123,0.0468,-0.0529,0.0084
P1D,D,60843,0.6266,0.6248,0.8261,0.0278,0.4399,1.3029,-9.1987,2.8471,0.0348,-0.0398,0.0152
P1D,D,60863,0.6298,0.6261,0.8113,0.0227,0.4395,1.5993,-9.1101,2.8171,-0.0004,-0.0305,0.0274
P1D,D,60883,0.6273,0.6248,0.8218,0.0270,0.4221,1.7442,-9.0801,2.8950,-0.0230,-0.0473,0.0289
P1D,D,60903,0.6223,0.6236,0.8155,0.0324,0.4591,1.8286,-9.1065,3.1063,-0.0437,-0.0388,0.0244
P1D,D,60923,0.6277,0.6232,0.8278,0.0286,0.3918,1.9280,-9.0161,3.2812,-0.0592,-0.0501,0.0096
P1D,D,60943,0.6305,0.6248,0.8261,0.0000,0.4470,1.8322,-8.9436,3.3985,-0.0354,-0.0488,-0.0155
P1D,D,60963,0.6291,0.6211,0.8053,0.0193,0.4256,1.7244,-8.9155,3.4458,-0.0048,-0.0532,-0.0302
P1D,D,60983,0.6291,0.6236,0.8104,0.0000,0.4270,1.5250,-8.9789,3.3722,0.0153,-0.0530,-0.0437
P1D,D,61003,0.6287,0.6224,0.8252,0.0266,0.3833,1.3496,-9.0244,3.2836,0.0345,-0.0513,-0.0526
P1D,D,61023,0.6291,0.6253,0.8307,0.0266,0.4003,1.1748,-9.0747,3.1429,0.0386,-0.0703,-0.0572
P1D,D,61043,0.6298,0.6240,0.8151,0.0000,0.4225,1.0538,-9.0466,3.0794,0.0372,-0.0758,-0.0546
P1D,D,61063,0.6273,0.6248,0.8261,0.0317,0.3967,0.9867,-9.0526,3.0393,0.0393,-0.0731,-0.0472
P1D,D,61083,0.6305,0.6224,0.8269,0.0274,0.3954,0.8718,-9.1292,3.0531,0.0434,-0.0590,-0.0432
P1D,D,61103,0.6330,0.6211,0.8256,0.0270,0.3945,0.8191,-9.0843,3.0710,0.0348,-0.0334,-0.0301
P1D,D,61123,0.6284,0.6232,0.8426,0.0363,0.3735,0.8694,-9.0610,3.0950,0.0409,-0.0212,-0.0005
P1D,D,61143,0.6298,0.6236,0.8265,0.0286,0.3976,0.9742,-9.0849,3.1542,0.0369,-0.0193,0.0175
P1D,D,61163,0.6291,0.6232,0.8316,0.0258,0.3722,1.0574,-9.0292,3.2237,0.0378,-0.0228,0.0394
P1D,D,61183,0.6287,0.6224,0.8096,0.0134,0.4096,1.1688,-9.0364,3.2117,0.0488,-0.0376,0.0444
P1D,D,61203,0.6316,0.6273,0.8328,0.0270,0.3758,1.2017,-9.0406,3.1099,0.0626,-0.0369,0.0449
P1D,D,61223,0.6305,0.6257,0.8163,0.0270,0.4305,1.2514,-9.1130,3.0381,0.0582,-0.0360,0.0373
P1D,D,61243,0.6298,0.6248,0.8472,0.0433,0.4194,1.1915,-9.1101,3.0093,0.0693,-0.0346,0.0325
P1D,D,61263,0.6295,0.6273,0.8379,0.0309,0.3967,1.1400,-9.1939,2.8237,0.0779,-0.0096,0.0289
P1D,D,61283,0.6273,0.6290,0.8303,0.0507,0.4230,1.2604,-9.2741,2.7004,0.0669,0.0091,0.0369
P1D,D,61303,0.6280,0.6228,0.8256,0.0379,0.4256,1.5077,-9.2831,2.6663,0.0576,-0.0260,0.0558
P1D,D,61323,0.6291,0.6220,0.8387,0.0293,0.3646,1.7388,-9.2951,2.6555,0.0470,-0.1163,0.0670
P1D,D,61343,0.6295,0.6224,0.8248,0.0053,0.4145,1.7633,-9.2933,2.6788,0.0270,-0.1836,0.0687
P1D,D,61363,0.6305,0.6244,0.8227,0.0293,0.4448,1.8184,-9.2765,2.7609,0.0115,-0.1819,0.0576
P1D,D,61383,0.6305,0.6224,0.8290,0.0286,0.3513,1.9022,-9.2077,2.9273,0.0079,-0.1528,0.0368
P1D,D,61403,0.6273,0.6244,0.8104,0.0200,0.4501,1.9603,-9.1831,3.0716,0.0233,-0.1356,0.0215
P1D,D,61423,0.6287,0.6236,0.8261,0.0138,0.4176,1.9513,-9.1831,3.1213,0.0252,-0.1298,0.0020
P1D,D,61443,0.6302,0.6244,0.8218,0.0286,0.4635,1.8400,-9.1693,3.1171,0.0458,-0.1088,-0.0199
P1D,D,61463,0.6330,0.6261,0.8235,0.0328,0.4452,1.7352,-9.1723,3.0824,0.0632,-0.0866,-0.0488
P1D,D,61483,0.6295,0.6248,0.8011,0.0270,0.4234,1.5747,-9.1388,2.9974,0.0706,-0.0729,-0.0695
P1D,D,61503,0.6298,0.6285,0.8070,0.0286,0.4617,1.4340,-9.1532,2.9387,0.0883,-0.0701,-0.0722
P1D,D,61523,0.6287,0.6261,0.8371,0.0278,0.3793,1.2532,-9.2184,2.7501,0.0926,-0.0738,-0.0654
P1D,D,61543,0.6291,0.6248,0.8273,0.0266,0.3833,1.1191,-9.2735,2.6100,0.0813,-0.0693,-0.0562
P1D,D,61563,0.6298,0.6240,0.8041,0.0076,0.4248,1.0855,-9.3178,2.5088,0.0509,-0.0562,-0.0402
P1D,D,61583,0.6295,0.6248,0.8193,0.0266,0.4395,1.1179,-9.2825,2.4705,0.0222,-0.0494,-0.0289
P1D,D,61603,0.6305,0.6236,0.8278,0.0293,0.3824,1.1574,-9.2945,2.5106,-0.0108,-0.0466,-0.0218
P1D,D,61623,0.6219,0.6236,0.8239,0.0278,0.4755,1.1849,-9.2460,2.5932,-0.0454,-0.0309,-0.0109
P1D,D,61643,0.6305,0.6265,0.8286,0.0289,0.4025,1.2562,-9.2268,2.7525,-0.0678,-0.0208,-0.0073
P1D,D,61663,0.6305,0.6294,0.8100,0.0255,0.4207,1.2861,-9.1675,2.9183,-0.0723,-0.0200,-0.0033
P1D,D,61683,0.6298,0.6244,0.8383,0.0371,0.3798,1.3292,-9.1376,3.0093,-0.0711,-0.0250,0.0012
P1D,D,61703,0.6295,0.6261,0.8502,0.0956,0.4310,1.2963,-9.1113,3.1243,-0.0661,-0.0077,0.0008
P1D,D,61723,0.6309,0.6244,0.8206,0.0227,0.4190,1.3717,-9.0628,3.1195,-0.0517,-0.0067,0.0001
P1D,D,61743,0.6302,0.6253,0.8345,0.0301,0.3985,1.3771,-9.0532,3.1327,-0.0372,-0.0215,0.0027
P1D,D,61763,0.6302,0.6261,0.8548,0.0832,0.4332,1.3304,-9.0544,3.1387,-0.0280,-0.0317,0.0011
P1D,D,61783,0.6305,0.6269,0.8531,0.0379,0.4305,1.3053,-9.0334,3.1968,-0.0220,-0.0225,-0.0061
P1D,D,61803,0.6323,0.6277,0.8303,0.0297,0.3980,1.3256,-9.0382,3.2500,-0.0080,-0.0187,-0.0092
P1D,D,61823,0.6309,0.6261,0.8519,0.0317,0.4078,1.2939,-9.0813,3.2698,0.0023,-0.0430,-0.0113
P1D,D,61843,0.6305,0.6220,0.8637,0.0712,0.4403,1.1676,-9.1077,3.1656,0.0104,-0.0569,-0.0017
P1D,D,61863,0.6327,0.6261,0.8434,0.0270,0.4390,1.1712,-9.0657,3.0537,0.0108,-0.0429,0.0089
P1D,D,61883,0.6316,0.6298,0.8244,0.0274,0.4421,1.2137,-9.1735,2.9567,0.0184,-0.0409,0.0088
P1D,D,61903,0.6330,0.6244,0.8261,0.0286,0.4555,1.1712,-9.1442,2.8609,0.0088,-0.0244,0.0091
P1D,D,61923,0.6316,0.6248,0.8316,0.0282,0.4154,1.3107,-9.1645,2.8393,-0.0108,0.0039,0.0116
P1D,D,61943,0.6330,0.6314,0.8049,0.0235,0.4439,1.3670,-9.1514,2.8668,-0.0264,-0.0005,0.0157
P1D,D,61963,0.6309,0.6331,0.8206,0.0553,0.4363,1.4268,-9.1316,2.9429,-0.0320,-0.0191,0.0180
P1D,D,61983,0.6316,0.6244,0.8341,0.0293,0.3994,1.4190,-9.0897,3.0501,-0.0368,-0.0189,0.0180
P1D,D,62003,0.6323,0.6224,0.8074,0.0251,0.4127,1.5202,-9.0915,3.1650,-0.0285,-0.0052,0.0165
P1D,D,62023,0.6338,0.6273,0.8540,0.0293,0.3909,1.5705,-9.0909,3.2153,-0.0136,-0.0183,0.0120
P1D,D,62043,0.6316,0.6253,0.8151,0.0251,0.4475,1.5352,-9.0837,3.2207,-0.0059,-0.0257,0.0061
P1D,D,62063,0.6323,0.6273,0.8007,0.0154,0.4444,1.5699,-9.0490,3.1728,-0.0003,-0.0240,0.0065
P1D,D,62083,0.6309,0.6265,0.8019,0.0258,0.4497,1.5184,-9.0777,3.1225,0.0225,-0.0408,-0.0041
P1D,D,62103,0.6316,0.6285,0.7867,0.0258,0.4225,1.4789,-9.1490,3.0794,0.0242,-0.0382,-0.0107
P1D,D,62123,0.6298,0.6261,0.8256,0.0286,0.4564,1.4436,-9.1346,3.0117,0.0261,-0.0512,-0.0100
P1D,D,62143,0.6313,0.6290,0.8426,0.0332,0.4083,1.3310,-9.1574,2.9387,0.0300,-0.0572,-0.0109
P1D,D,62163,0.6316,0.6265,0.8269,0.0305,0.3744,1.3274,-9.1633,2.8644,0.0236,-0.0392,-0.0108
P1D,D,62183,0.6320,0.6269,0.8307,0.0305,0.4101,1.3795,-9.2065,2.8752,0.0111,-0.0330,-0.0124
P1D,D,62203,0.6302,0.6281,0.8307,0.0293,0.3829,1.3885,-9.1394,2.9411,-0.0097,-0.0374,-0.0097
P1D,D,62223,0.6309,0.6285,0.8527,0.0313,0.4003,1.4017,-9.1621,3.0231,-0.0088,-0.0326,-0.0072
P1D,D,62243,0.6316,0.6269,0.8307,0.0336,0.4101,1.4370,-9.1244,3.0752,-0.0185,-0.0336,-0.0052
P1D,D,62263,0.6313,0.6261,0.8366,0.0293,0.3887,1.4526,-9.0957,3.1279,-0.0081,-0.0360,-0.0103
P1D,D,62283,0.6313,0.6269,0.8303,0.0301,0.3833,1.4322,-9.0819,3.1698,0.0157,-0.0366,-0.0139
P1D,D,62303,0.6305,0.6294,0.8557,0.0305,0.4025,1.4556,-9.1107,3.1752,0.0173,-0.0358,-0.0123
P1D,D,62323,0.6338,0.6240,0.8206,0.0293,0.4853,1.3855,-9.0783,3.0728,0.0286,-0.0521,-0.0172
P1D,D,62343,0.6323,0.6331,0.8168,0.0000,0.4524,1.2849,-9.0640,3.0782,0.0333,-0.0502,-0.0172
P1D,D,62363,0.6305,0.6281,0.8273,0.0286,0.4787,1.2945,-9.0975,3.0177,0.0312,-0.0353,-0.0164
P1D,D,62383,0.6309,0.6281,0.8426,0.0739,0.4337,1.3352,-9.1472,2.9878,0.0225,-0.0442,-0.0129
P1D,D,62403,0.6302,0.6253,0.8218,0.0274,0.4412,1.2670,-9.1526,2.9201,0.0080,-0.0646,-0.0024
P1D,D,62423,0.6313,0.6281,0.8108,0.0193,0.4546,1.2747,-9.1526,2.9153,0.0020,-0.0460,0.0061
P1D,D,62443,0.6323,0.6257,0.8252,0.0301,0.4444,1.3646,-9.1400,2.9357,0.0064,-0.0249,0.0052
P1D,D,62463,0.6320,0.6298,0.8248,0.0557,0.4328,1.4610,-9.1819,2.9764,-0.0045,-0.0297,0.0017
P1D,D,62483,0.6302,0.6265,0.8197,0.0301,0.4720,1.4143,-9.0957,3.0004,-0.0132,-0.0436,-0.0073
P1D,D,62503,0.6305,0.6318,0.8151,0.0270,0.4836,1.3562,-9.1077,3.0519,-0.0068,-0.0261,-0.0136
P1D,D,62523,0.6330,0.6244,0.8320,0.0317,0.3967,1.4208,-9.1077,3.0686,-0.0157,-0.0108,-0.0093
P1D,D,62543,0.6327,0.6285,0.7990,0.0255,0.4604,1.4047,-9.0819,3.1010,-0.0132,-0.0416,-0.0109
P1D,D,62563,0.6309,0.6306,0.8265,0.0282,0.4550,1.3221,-9.0861,3.1057,0.0028,-0.0249,-0.0101
P1D,D,62583,0.6302,0.6281,0.8134,0.0000,0.4314,1.4508,-9.0933,3.1016,0.0019,-0.0225,-0.0029
P1D,D,62603,0.6330,0.6290,0.7939,0.0038,0.4243,1.4095,-9.0873,3.0692,0.0100,-0.0537,-0.0024
P1D,D,62623,0.6320,0.6285,0.8286,0.0173,0.4207,1.3717,-9.1615,3.0519,0.0087,-0.0297,-0.0091
