person_id,label,timestamp,flex1,flex2,flex3,flex4,flex5,ax,ay,az,gx,gy,gz
P1E,E,155243,0.9918,0.9906,0.9912,0.9756,1.0000,-1.8681,-9.6244,-1.6322,0.0513,-0.0180,0.0089
P1E,E,155263,0.9921,0.9902,0.9882,0.9880,1.0000,-1.7795,-9.6046,-1.7729,0.0064,-0.0225,0.0124
P1E,E,155283,0.9925,0.9886,0.9861,0.9816,1.0000,-1.7567,-9.4980,-1.6891,-0.0181,-0.0418,-0.0013
P1E,E,155303,0.9888,0.9881,0.9929,1.0000,0.9680,-1.8514,-9.4753,-1.6364,-0.0104,-0.0338,0.0039
P1E,E,155323,0.9925,0.9848,0.9933,0.9876,0.9409,-1.7100,-9.5495,-1.5705,0.0075,-0.0063,0.0140
P1E,E,155343,0.9943,0.9894,0.9642,0.9808,0.9536,-1.6538,-9.6154,-1.5292,0.0049,-0.0273,-0.0012
P1E,E,155363,0.9925,0.9894,0.9882,0.9876,0.9364,-1.8154,-9.6465,-1.5370,0.0004,-0.0325,-0.0132
P1E,E,155383,0.9918,0.9911,0.9903,0.9860,1.0000,-1.7585,-9.5286,-1.5107,0.0008,-0.0370,-0.0115
P1E,E,155403,0.9907,0.9927,0.9929,1.0000,0.9540,-1.7801,-9.5723,-1.5268,0.0156,-0.0449,-0.0141
P1E,E,155423,0.9910,0.9902,1.0000,0.9740,0.9310,-1.8537,-9.5388,-1.5202,0.0185,-0.0272,-0.0093
P1E,E,155443,0.9918,0.9869,0.9908,1.0000,0.9310,-1.8011,-9.6525,-1.5316,0.0246,-0.0019,0.0020
P1E,E,155463,0.9899,0.9898,0.9861,1.0000,1.0000,-1.7819,-9.5699,-1.5178,0.0077,-0.0298,-0.0060
P1E,E,155483,0.9951,0.9890,0.9806,0.9780,0.9703,-1.8873,-9.5771,-1.6202,0.0151,-0.0502,-0.0075
P1E,E,155503,0.9885,0.9894,0.9802,0.9892,0.9518,-1.8286,-9.5238,-1.6089,0.0039,-0.0401,0.0081
P1E,E,155523,0.9936,0.9886,0.9882,0.9832,0.9590,-1.7645,-9.5891,-1.6148,0.0007,-0.0294,0.0051
P1E,E,155543,0.9903,0.9911,0.9874,0.9828,0.9437,-1.7939,-9.5663,-1.5759,0.0031,-0.0504,-0.0028
P1E,E,155563,0.9896,0.9877,1.0000,1.0000,0.9671,-1.8011,-9.5897,-1.5610,0.0055,-0.0314,0.0075
P1E,E,155583,0.9929,0.9890,0.9785,0.9720,0.9464,-1.6717,-9.5454,-1.5196,0.0213,-0.0185,0.0069
P1E,E,155603,0.9899,0.9881,0.9912,0.9740,0.9509,-1.6627,-9.6609,-1.5795,0.0242,-0.0378,-0.0152
P1E,E,155623,0.9870,0.9852,0.9874,0.9972,0.9116,-1.8005,-9.5567,-1.5532,0.0049,-0.0337,-0.0228
P1E,E,155643,0.9874,0.9911,1.0000,0.9792,0.9450,-1.8502,-9.6094,-1.5424,0.0193,-0.0304,-0.0063
P1E,E,155663,0.9903,0.9856,0.9882,0.9852,0.9558,-1.8675,-9.5711,-1.5262,0.0220,-0.0441,-0.0060
P1E,E,155683,0.9907,0.9869,1.0000,1.0000,1.0000,-1.9154,-9.5172,-1.5855,0.0193,-0.0380,0.0021
P1E,E,155703,0.9874,0.9894,0.9908,0.9992,1.0000,-1.7424,-9.5723,-1.6639,0.0215,-0.0096,0.0221
P1E,E,155723,0.9881,0.9890,0.9891,0.9920,0.9744,-1.5370,-9.6016,-1.6508,-0.0045,-0.0314,0.0009
P1E,E,155743,0.9855,0.9860,0.9844,0.9900,1.0000,-1.8310,-9.5394,-1.5915,-0.0212,-0.0610,-0.0180
P1E,E,155763,0.9903,0.9869,0.9899,0.9836,0.9441,-1.8322,-9.5202,-1.4562,0.0048,-0.0252,-0.0013
P1E,E,155783,0.9914,0.9831,0.9849,0.9792,0.9328,-1.7352,-9.6328,-1.4544,0.0250,-0.0393,-0.0173
P1E,E,155803,0.9881,0.9873,0.9861,0.9824,0.9346,-1.8328,-9.5873,-1.4705,0.0330,-0.0530,-0.0171
P1E,E,155823,0.9870,0.9856,0.9781,0.9736,0.9622,-1.9004,-9.6082,-1.5765,0.0288,-0.0401,0.0013
P1E,E,155843,0.9870,0.9869,0.9933,1.0000,0.9261,-1.8029,-9.5100,-1.6382,0.0249,-0.0273,0.0115
P1E,E,155863,0.9851,0.9865,0.9899,0.9936,0.9419,-1.6981,-9.5651,-1.6753,0.0111,-0.0201,0.0087
P1E,E,155883,0.9851,0.9865,0.9908,0.9824,0.9536,-1.7873,-9.5579,-1.6304,-0.0008,-0.0486,-0.0071
P1E,E,155903,0.9862,0.9815,0.9785,0.9724,0.9978,-1.7801,-9.5226,-1.5406,0.0105,-0.0321,-0.0059
P1E,E,155923,0.9892,0.9852,0.9882,0.9980,0.9590,-1.7579,-9.5962,-1.5508,0.0234,-0.0185,0.0091
P1E,E,155943,0.9888,0.9881,0.9924,0.9864,1.0000,-1.6346,-9.6172,-1.5388,0.0276,-0.0326,0.0032
P1E,E,168083,0.8101,0.8836,0.9347,1.0000,1.0000,-2.6537,-9.3484,-1.2718,-0.0321,-0.0248,-0.0241
P1E,E,168103,0.8097,0.8853,0.9234,0.9732,1.0000,-2.7225,-9.4394,-1.2029,0.0039,-0.0492,-0.0147
P1E,E,168143,0.8090,0.8832,0.9297,0.9916,0.9933,-2.6938,-9.5340,-1.1837,0.0075,-0.0297,0.0254
P1E,E,168163,0.8083,0.8840,0.9352,0.9700,1.0000,-2.4735,-9.4891,-1.1742,0.0179,-0.0072,0.0290
P1E,E,168183,0.8097,0.8815,0.9347,0.9900,1.0000,-2.3447,-9.4729,-1.1568,0.0109,-0.0292,0.0165
P1E,E,168203,0.8119,0.8832,0.9335,1.0000,0.9856,-2.4609,-9.4507,-1.1514,0.0203,-0.0405,-0.0019
P1E,E,168223,0.8083,0.8861,0.9326,0.9884,1.0000,-2.5387,-9.4358,-1.1646,0.0229,-0.0073,0.0060
P1E,E,168243,0.8108,0.8794,0.9347,0.9772,1.0000,-2.4052,-9.3735,-1.1927,0.0240,0.0036,-0.0043
P1E,E,168263,0.8024,0.8828,0.9347,1.0000,1.0000,-2.5489,-9.4202,-1.2251,0.0297,-0.0125,-0.0213
P1E,E,168283,0.8105,0.8845,0.9347,0.9868,1.0000,-2.6501,-9.5004,-1.1604,0.0041,-0.0005,-0.0200
P1E,E,168303,0.8105,0.8866,0.9457,1.0000,1.0000,-2.5776,-9.4256,-1.0784,-0.0165,0.0051,-0.0131
P1E,E,168323,0.8097,0.8874,0.9343,0.9944,1.0000,-2.5639,-9.4070,-1.0532,-0.0169,-0.0434,-0.0139
P1E,E,168343,0.8090,0.8840,0.9339,1.0000,0.9798,-2.6962,-9.4531,-1.0335,-0.0047,-0.0572,-0.0100
P1E,E,168363,0.8094,0.8828,0.9267,0.9848,1.0000,-2.5914,-9.3771,-1.0658,0.0020,-0.0404,0.0101
P1E,E,168383,0.8112,0.8857,0.9402,0.9796,1.0000,-2.5010,-9.4843,-1.0574,0.0273,-0.0454,0.0139
P1E,E,168403,0.8079,0.8857,0.9297,0.9948,1.0000,-2.4968,-9.4280,-1.1287,0.0143,-0.0444,0.0131
P1E,E,168423,0.8083,0.8849,0.9352,0.9916,1.0000,-2.4303,-9.4166,-1.2119,0.0370,-0.0432,0.0129
P1E,E,168443,0.8083,0.8866,0.9512,1.0000,1.0000,-2.4082,-9.4579,-1.3041,0.0305,-0.0460,-0.0001
P1E,E,168463,0.8075,0.8832,0.9284,0.9800,0.9911,-2.5154,-9.4759,-1.3340,0.0160,-0.0502,-0.0023
P1E,E,168483,0.8112,0.8840,0.9272,0.9872,1.0000,-2.4902,-9.4531,-1.3197,0.0020,-0.0248,0.0001
P1E,E,168503,0.8094,0.8832,0.9310,0.9828,1.0000,-2.4657,-9.4005,-1.2634,-0.0072,-0.0240,0.0031
P1E,E,168523,0.8086,0.8815,0.9352,0.9856,1.0000,-2.5202,-9.4717,-1.1760,0.0003,-0.0236,-0.0019
P1E,E,168543,0.8079,0.8853,0.9187,0.9924,1.0000,-2.4770,-9.5226,-1.1101,0.0048,-0.0141,0.0017
P1E,E,168563,0.8086,0.8828,0.9284,0.9872,1.0000,-2.4621,-9.4885,-1.1322,-0.0019,-0.0208,-0.0073
P1E,E,168583,0.8094,0.8836,0.9331,0.9792,1.0000,-2.5495,-9.4340,-1.0891,0.0024,-0.0430,-0.0167
P1E,E,168603,0.8094,0.8853,0.9314,0.9712,1.0000,-2.6758,-9.5364,-1.0879,0.0218,-0.0260,-0.0112
P1E,E,168623,0.8094,0.8840,0.9335,0.9780,0.9911,-2.4992,-9.5292,-1.0873,0.0358,-0.0224,-0.0019
P1E,E,168643,0.8079,0.8832,0.9259,1.0000,1.0000,-2.5184,-9.5843,-1.1849,0.0321,-0.0665,-0.0027
P1E,E,168663,0.8086,0.8857,0.9246,0.9924,1.0000,-2.5585,-9.5178,-1.2712,0.0183,-0.0600,-0.0056
P1E,E,168683,0.8094,0.8857,0.9343,0.9888,0.9974,-2.5585,-9.4052,-1.1963,0.0261,-0.0352,0.0069
P1E,E,168703,0.8075,0.8811,0.9305,0.9732,1.0000,-2.4010,-9.5465,-1.2316,0.0286,-0.0191,-0.0032
P1E,E,168723,0.8086,0.8815,0.9356,0.9964,1.0000,-2.4094,-9.4436,-1.2274,-0.0136,-0.0212,-0.0143
P1E,E,168743,0.8064,0.8832,0.9310,0.9996,1.0000,-2.5016,-9.3909,-1.2101,-0.0148,-0.0156,-0.0261
P1E,E,168763,0.8097,0.8832,0.9293,1.0000,1.0000,-2.3878,-9.3885,-1.1598,-0.0072,-0.0222,-0.0382
P1E,E,168783,0.8090,0.8832,0.9453,0.9888,0.9748,-2.6094,-9.3526,-1.1957,-0.0100,-0.0596,-0.0560
P1E,E,168803,0.8075,0.8832,0.9318,0.9940,1.0000,-2.7453,-9.4753,-1.1879,-0.0047,-0.0298,-0.0454
P1E,E,168823,0.8083,0.8832,0.9280,1.0000,1.0000,-2.5896,-9.4400,-1.1568,-0.0334,-0.0108,-0.0286
P1E,E,168843,0.8072,0.8774,0.9356,1.0000,1.0000,-2.5220,-9.4951,-1.1251,-0.0262,-0.0465,-0.0180
P1E,E,168863,0.8086,0.8853,0.9339,0.9868,1.0000,-2.6722,-9.4328,-1.1316,-0.0360,-0.0518,-0.0127
P1E,E,168883,0.8072,0.8824,0.9352,1.0000,1.0000,-2.5920,-9.2753,-0.9987,-0.0167,-0.0242,0.0028
P1E,E,168903,0.8035,0.8832,0.9360,0.9848,0.9703,-2.3974,-9.4382,-0.9670,0.0241,-0.0242,-0.0051
P1E,E,168923,0.8152,0.8849,0.9381,0.9844,1.0000,-2.4609,-9.4424,-1.0867,0.0211,-0.0557,-0.0148
P1E,E,168943,0.8083,0.8832,0.9238,0.9772,1.0000,-2.5878,-9.4232,-1.1508,0.0286,-0.0252,-0.0076
P1E,E,168963,0.8090,0.8853,0.9171,1.0000,1.0000,-2.4729,-9.4957,-1.1939,0.0171,-0.0068,0.0000
P1E,E,168983,0.8072,0.8824,0.9209,0.9956,1.0000,-2.5285,-9.4058,-1.2334,-0.0065,-0.0282,-0.0049
P1E,E,169003,0.8083,0.8857,0.9339,0.9876,1.0000,-2.5764,-9.4448,-1.2556,-0.0001,-0.0107,0.0009
P1E,E,169023,0.8086,0.8840,0.9352,1.0000,1.0000,-2.5022,-9.3837,-1.1712,-0.0160,-0.0304,-0.0048
P1E,E,169043,0.8094,0.8824,0.9331,0.9856,1.0000,-2.6854,-9.3795,-1.0831,0.0135,-0.0673,-0.0188
P1E,E,169063,0.8079,0.8853,0.9339,0.9868,1.0000,-2.7399,-9.5100,-1.1239,0.0019,-0.0265,-0.0101
P1E,E,169083,0.8013,0.8824,0.9347,0.9860,1.0000,-2.7016,-9.3909,-1.1909,-0.0248,-0.0072,0.0071
P1E,E,169103,0.8083,0.8878,0.9427,0.9924,1.0000,-2.5148,-9.3711,-1.2418,-0.0304,-0.0253,0.0080
P1E,E,169123,0.8086,0.8790,0.9347,0.9816,1.0000,-2.5345,-9.5190,-1.2598,-0.0164,-0.0614,0.0057
P1E,E,169143,0.8101,0.8811,0.9398,0.9876,1.0000,-2.5040,-9.6873,-1.1185,-0.0127,-0.0529,0.0168
P1E,E,169163,0.8112,0.8815,0.9343,0.9804,1.0000,-2.4387,-9.7908,-0.9371,-0.0308,-0.0373,0.0257
P1E,E,169183,0.8090,0.8824,0.9381,0.9916,1.0000,-2.4441,-9.5962,-0.7838,-0.0226,-0.0232,0.0201
P1E,E,169203,0.8086,0.8866,0.9314,0.9856,0.9911,-2.4453,-9.4633,-0.7311,0.0362,-0.0016,0.0035
P1E,E,169223,0.8079,0.8807,0.9259,1.0000,1.0000,-2.5621,-9.4412,-0.7814,0.0863,-0.0040,-0.0207
P1E,E,169243,0.8090,0.8824,0.9402,0.9844,1.0000,-2.7519,-9.4855,-1.0173,0.0854,-0.0084,-0.0281
P1E,E,169263,0.8086,0.8836,0.9305,0.9800,1.0000,-2.6040,-9.4196,-1.2131,0.0396,-0.0272,-0.0341
P1E,E,169283,0.8068,0.8820,0.9267,0.9924,1.0000,-2.6663,-9.3442,-1.2053,0.0015,-0.0773,-0.0386
P1E,E,169303,0.8090,0.8824,0.9318,0.9828,1.0000,-2.6794,-9.3340,-1.1879,0.0023,-0.0683,-0.0216
P1E,E,169323,0.8072,0.8853,0.9305,1.0000,1.0000,-2.4256,-9.3627,-1.1592,-0.0045,-0.0574,-0.0092
P1E,E,169343,0.8075,0.8836,0.9280,0.9972,1.0000,-2.3884,-9.3981,-1.1310,-0.0159,-0.0576,-0.0120
P1E,E,169363,0.8075,0.8832,0.9259,0.9932,1.0000,-2.3968,-9.4046,-1.0861,-0.0238,-0.0321,-0.0152
P1E,E,169383,0.8090,0.8820,0.9347,0.9800,1.0000,-2.4100,-9.3526,-1.0861,-0.0117,-0.0061,-0.0109
P1E,E,169403,0.8068,0.8840,0.9259,0.9940,0.9689,-2.4375,-9.4633,-1.0592,0.0055,0.0099,-0.0097
P1E,E,169423,0.8079,0.8824,0.9331,0.9868,1.0000,-2.5435,-9.4256,-1.0233,0.0016,-0.0025,-0.0072
P1E,E,169443,0.8090,0.8828,0.9305,0.9804,1.0000,-2.6363,-9.4466,-1.0448,0.0032,0.0101,0.0028
P1E,E,169463,0.8079,0.8832,0.9162,0.9788,1.0000,-2.6190,-9.4663,-1.0472,0.0027,0.0103,0.0092
P1E,E,169483,0.8101,0.8861,0.9411,0.9816,1.0000,-2.6363,-9.4460,-1.0059,0.0192,-0.0260,0.0043
P1E,E,169503,0.8024,0.8820,0.9301,0.9928,1.0000,-2.6190,-9.4765,-0.9598,0.0326,-0.0401,0.0029
P1E,E,169523,0.8075,0.8820,0.9246,0.9852,1.0000,-2.6243,-9.5771,-1.0430,0.0270,-0.0573,0.0045
P1E,E,169543,0.8094,0.8832,0.9276,1.0000,1.0000,-2.5728,-9.4687,-1.0831,0.0131,-0.0488,0.0089
P1E,E,169563,0.8079,0.8811,0.9326,0.9968,1.0000,-2.5238,-9.5040,-1.1059,0.0222,-0.0484,0.0076
P1E,E,169583,0.8083,0.8815,0.9440,0.9904,1.0000,-2.4770,-9.4759,-1.1388,0.0180,-0.0585,-0.0063
P1E,E,169603,0.8083,0.8824,0.9272,0.9960,1.0000,-2.4914,-9.5489,-1.1987,0.0181,-0.0536,-0.0124
P1E,E,169623,0.8075,0.8820,0.9263,1.0000,1.0000,-2.5249,-9.5052,-1.2065,-0.0025,-0.0301,-0.0123
P1E,E,169643,0.8075,0.8828,0.9276,0.9824,0.9924,-2.5303,-9.5070,-1.1652,0.0108,-0.0378,-0.0183
P1E,E,169663,0.8086,0.8845,0.9322,0.9988,1.0000,-2.5579,-9.5459,-1.0790,0.0036,-0.0576,-0.0242
P1E,E,169683,0.8068,0.8820,0.9044,1.0000,1.0000,-2.5423,-9.3783,-0.9293,0.0220,-0.0534,-0.0199
P1E,E,169703,0.8072,0.8828,0.9364,0.9792,1.0000,-2.3429,-9.4957,-1.0975,0.0422,0.0060,-0.0340
P1E,E,169723,0.8090,0.8820,0.9301,1.0000,1.0000,-2.3310,-9.4082,-1.1251,0.0445,-0.0208,-0.0690
P1E,E,169743,0.8057,0.8815,0.9331,0.9976,1.0000,-2.7040,-9.4364,-1.1748,0.0634,-0.0452,-0.0667
P1E,E,169763,0.8090,0.8807,0.9352,0.9952,1.0000,-2.8243,-9.5729,-1.1538,0.0570,0.0108,-0.0177
P1E,E,169783,0.8072,0.8807,0.9335,0.9804,1.0000,-2.6794,-9.4543,-1.0442,0.0556,0.0141,0.0325
P1E,E,169803,0.8075,0.8799,0.9305,0.9812,1.0000,-2.6489,-9.5160,-1.0556,0.0803,-0.0220,0.0614
P1E,E,169823,0.8086,0.8828,0.9373,1.0000,1.0000,-2.5723,-9.5154,-1.0490,0.0913,-0.0284,0.0646
P1E,E,169843,0.8086,0.8824,0.9364,0.9948,0.9762,-2.5196,-9.4879,-1.0760,0.0926,-0.0234,0.0536
P1E,E,169863,0.8072,0.8815,0.9478,0.9980,1.0000,-2.4088,-9.4011,-1.1023,0.0793,-0.0133,0.0318
P1E,E,169883,0.8079,0.8794,0.9318,0.9836,1.0000,-2.2657,-9.4262,-1.1322,0.0636,-0.0195,-0.0085
P1E,E,169903,0.8083,0.8853,0.9310,1.0000,1.0000,-2.4387,-9.4687,-1.1562,0.0345,-0.0686,-0.0620
P1E,E,169923,0.8075,0.8803,0.9276,0.9792,1.0000,-2.7645,-9.3526,-1.1879,0.0215,-0.0568,-0.0746
P1E,E,169943,0.8068,0.8820,0.9276,1.0000,0.9883,-2.6477,-9.3825,-1.2550,0.0250,-0.0027,-0.0570
P1E,E,169963,0.8072,0.8857,0.9352,0.9872,1.0000,-2.6267,-9.4100,-1.3131,0.0037,-0.0402,-0.0661
P1E,E,169983,0.8072,0.8799,0.9280,0.9828,0.9951,-2.8764,-9.4442,-1.2598,0.0028,-0.0738,-0.0698
P1E,E,170003,0.8068,0.8824,0.9343,1.0000,1.0000,-2.9183,-9.4615,-1.2167,-0.0164,-0.0533,-0.0422
P1E,E,170023,0.8097,0.8811,0.9166,0.9812,0.9956,-2.7812,-9.3190,-1.2089,-0.0191,-0.0195,-0.0093
P1E,E,170043,0.8119,0.8815,0.9267,0.9916,1.0000,-2.5339,-9.3220,-1.1089,0.0176,-0.0185,0.0000
P1E,E,170063,0.8053,0.8782,0.9095,0.9988,1.0000,-2.5232,-9.3861,-1.1538,0.0310,-0.0556,-0.0254
P1E,E,170083,0.8068,0.8811,0.9326,0.9768,1.0000,-2.6836,-9.3657,-1.1933,0.0325,-0.0384,-0.0226
P1E,E,170103,0.8086,0.8811,0.9322,1.0000,1.0000,-2.5992,-9.3537,-1.1562,0.0350,0.0091,-0.0105
P1E,E,170123,0.8068,0.8912,0.9322,0.9888,1.0000,-2.5597,-9.3615,-1.1023,0.0433,-0.0039,-0.0141
P1E,E,170143,0.8090,0.8866,0.9419,0.9916,1.0000,-2.7142,-9.4088,-1.1819,0.0513,-0.0354,-0.0204
P1E,E,170163,0.8057,0.8815,0.9364,1.0000,0.9965,-2.7219,-9.3370,-1.2292,0.0382,-0.0300,-0.0067
P1E,E,170183,0.8105,0.8803,0.9326,0.9860,1.0000,-2.7201,-9.3681,-1.3789,0.0148,-0.0318,0.0009
P1E,E,170203,0.8079,0.8815,0.9343,0.9880,1.0000,-2.7219,-9.3017,-1.2813,-0.0027,-0.0402,0.0097
P1E,E,170223,0.8083,0.8807,0.9217,0.9888,1.0000,-2.6938,-9.3741,-1.2484,-0.0123,-0.0683,0.0127
P1E,E,170243,0.8072,0.8815,0.9276,1.0000,1.0000,-2.6704,-9.3867,-1.0999,-0.0111,-0.0875,0.0253
P1E,E,170263,0.8086,0.8815,0.9301,0.9920,1.0000,-2.6172,-9.3651,-1.0634,0.0163,-0.0837,0.0234
P1E,E,170283,0.8075,0.8774,0.9373,0.9856,1.0000,-2.5992,-9.3705,-1.1472,0.0393,-0.0790,0.0127
P1E,E,170303,0.8083,0.8824,0.9310,1.0000,1.0000,-2.5567,-9.4957,-1.2268,0.0484,-0.0722,0.0184
P1E,E,170323,0.8064,0.8811,0.9234,0.9788,1.0000,-2.5196,-9.5759,-1.3478,0.0224,-0.0678,0.0228
P1E,E,170343,0.8075,0.8849,0.9314,0.9808,1.0000,-2.4381,-9.4777,-1.4196,0.0047,-0.0691,0.0195
P1E,E,170363,0.8090,0.8820,0.9381,0.9820,0.9974,-2.4477,-9.4819,-1.3909,-0.0136,-0.0592,0.0228
P1E,E,170383,0.8090,0.8799,0.9293,0.9928,1.0000,-2.4208,-9.4232,-1.3436,-0.0193,-0.0564,0.0120
P1E,E,170403,0.8068,0.8845,0.9116,1.0000,1.0000,-2.3878,-9.3029,-1.2263,-0.0037,-0.0426,0.0025
P1E,E,170423,0.8072,0.8866,0.9335,0.9952,1.0000,-2.3327,-9.3603,-1.2310,0.0144,-0.0035,0.0048
P1E,E,170443,0.8075,0.8815,0.9259,0.9860,1.0000,-2.2358,-9.3813,-1.2825,0.0056,0.0031,-0.0261
P1E,E,170463,0.8072,0.8815,0.9411,1.0000,1.0000,-2.4489,-9.4825,-1.3670,-0.0003,-0.0428,-0.0549
P1E,E,170483,0.8075,0.8815,0.9326,0.9884,1.0000,-2.6615,-9.5148,-1.3861,-0.0328,-0.0402,-0.0513
P1E,E,170503,0.8061,0.8903,0.9314,1.0000,0.9942,-2.6968,-9.5214,-1.2969,-0.0564,0.0108,0.0007
P1E,E,170523,0.8006,0.8815,0.9293,0.9868,1.0000,-2.6243,-9.4831,-1.0131,-0.0388,0.0228,0.0273
P1E,E,170543,0.7987,0.8803,0.9478,0.9864,0.9780,-2.5818,-9.4262,-0.8155,0.0093,-0.0037,0.0284
P1E,E,170563,0.8017,0.8828,0.9141,0.9784,0.9956,-2.6986,-9.4256,-0.8562,0.0609,-0.0059,0.0222
P1E,E,170583,0.8083,0.8799,0.9305,0.9788,1.0000,-2.6956,-9.4849,-0.9885,0.0881,0.0192,0.0256
P1E,E,170603,0.8072,0.8799,0.9267,1.0000,1.0000,-2.6651,-9.4112,-1.0754,0.0874,-0.0015,0.0208
P1E,E,170623,0.8064,0.8845,0.9297,1.0000,1.0000,-2.7357,-9.5100,-1.2478,0.0695,-0.0370,0.0032
P1E,E,170643,0.8079,0.8824,0.9305,0.9832,1.0000,-2.7333,-9.4759,-1.3508,0.0221,-0.0661,0.0097
P1E,E,170663,0.8064,0.8794,0.9289,1.0000,0.9757,-2.6782,-9.3903,-1.3723,-0.0031,-0.0610,0.0200
P1E,E,170683,0.8064,0.8794,0.9293,0.9928,1.0000,-2.3753,-9.3879,-1.3334,-0.0258,-0.0546,0.0234
P1E,E,170703,0.8094,0.8857,0.9301,0.9864,1.0000,-2.2705,-9.5196,-1.2245,-0.0152,-0.0747,0.0007
P1E,E,170723,0.8057,0.8836,0.9301,0.9960,1.0000,-2.3304,-9.5160,-1.1017,-0.0097,-0.0593,-0.0179
P1E,E,170743,0.8068,0.8815,0.9297,1.0000,1.0000,-2.3561,-9.5034,-1.1191,-0.0131,-0.0401,-0.0281
P1E,E,170763,0.8068,0.8782,0.9251,0.9828,1.0000,-2.5357,-9.3855,-1.1610,0.0115,-0.0406,-0.0372
P1E,E,170783,0.8123,0.8799,0.9369,0.9880,1.0000,-2.6746,-9.4549,-1.2251,0.0478,-0.0337,-0.0282
P1E,E,170803,0.8061,0.8794,0.9301,0.9996,1.0000,-2.7746,-9.4801,-1.2670,0.0532,-0.0269,-0.0077
P1E,E,170823,0.8061,0.8811,0.9280,0.9992,1.0000,-2.7513,-9.3843,-1.3041,0.0364,-0.0017,0.0141
P1E,E,170843,0.8072,0.8811,0.9162,0.9980,1.0000,-2.5932,-9.4208,-1.4442,0.0261,-0.0270,0.0149
P1E,E,170863,0.8057,0.8790,0.9276,0.9896,1.0000,-2.5812,-9.4028,-1.4795,-0.0005,-0.0653,-0.0016
P1E,E,170883,0.8086,0.8732,0.9196,0.9844,1.0000,-2.5573,-9.3975,-1.4723,-0.0101,-0.0811,-0.0027
P1E,E,170903,0.8061,0.8807,0.9116,0.9856,1.0000,-2.6249,-9.3573,-1.2676,-0.0213,-0.0738,-0.0040
P1E,E,170923,0.8086,0.8790,0.9331,0.9924,1.0000,-2.7225,-9.2975,-0.9089,0.0008,-0.0702,-0.0004
P1E,E,170943,0.8086,0.8832,0.9225,1.0000,1.0000,-2.7435,-9.5358,-0.9436,0.0372,-0.0662,0.0175
P1E,E,170963,0.8064,0.8790,0.9322,0.9996,1.0000,-2.7076,-9.6304,-0.8832,0.0365,-0.0966,0.0533
P1E,E,170983,0.8086,0.8803,0.9444,0.9760,1.0000,-2.5112,-9.7447,-0.8802,0.0317,-0.1053,0.0679
P1E,E,171003,0.8072,0.8820,0.9284,1.0000,0.9748,-2.3824,-9.7202,-0.8227,0.0221,-0.1187,0.0516
P1E,E,171023,0.8072,0.8790,0.9289,0.9868,1.0000,-2.4980,-9.6010,-0.7754,0.0710,-0.0929,0.0232
P1E,E,171043,0.8090,0.8799,0.9339,0.9940,1.0000,-2.3920,-9.6226,-0.9179,0.1038,-0.0408,-0.0003
P1E,E,171063,0.8068,0.8811,0.9369,0.9864,1.0000,-2.3477,-9.4986,-1.1933,0.0933,-0.0610,-0.0513
P1E,E,171083,0.8057,0.8794,0.9373,1.0000,1.0000,-2.5064,-9.4202,-1.4119,0.0821,-0.1030,-0.0971
P1E,E,171103,0.8075,0.8799,0.9263,0.9984,1.0000,-2.6842,-9.4112,-1.5837,0.0382,-0.0937,-0.1128
P1E,E,171123,0.8064,0.8799,0.9310,0.9864,1.0000,-2.7800,-9.3975,-1.6136,0.0008,-0.0902,-0.1071
P1E,E,171143,0.8072,0.8811,0.9263,0.9968,1.0000,-2.6902,-9.3831,-1.5292,-0.0274,-0.0858,-0.0902
P1E,E,171163,0.8061,0.8786,0.9242,0.9788,0.9685,-2.6208,-9.3172,-1.3358,-0.0360,-0.0723,-0.0636
P1E,E,171183,0.8050,0.8853,0.9267,0.9760,0.9915,-2.4166,-9.3639,-1.1903,-0.0077,-0.0356,-0.0425
P1E,E,171203,0.8061,0.8803,0.9246,0.9716,1.0000,-2.2106,-9.4076,-1.2041,0.0248,-0.0490,-0.0380
P1E,E,171223,0.8079,0.8778,0.9305,0.9792,0.9798,-2.3028,-9.3478,-1.2227,0.0474,-0.0502,-0.0604
P1E,E,171243,0.8079,0.8803,0.9314,0.9784,1.0000,-2.4519,-9.4136,-1.3155,0.0749,-0.0128,-0.0524
P1E,E,171263,0.8072,0.8782,0.9360,0.9776,0.9901,-2.4902,-9.4951,-1.4526,0.0726,0.0135,-0.0425
P1E,E,171283,0.8075,0.8786,0.9297,0.9756,1.0000,-2.6202,-9.3400,-1.4095,0.0698,0.0325,-0.0286
P1E,E,171303,0.8068,0.8786,0.9263,0.9852,0.9892,-2.7004,-9.3849,-1.4448,0.0785,0.0412,-0.0268
P1E,E,171323,0.8075,0.8794,0.9305,0.9796,1.0000,-2.7525,-9.5412,-1.4173,0.0813,0.0446,-0.0176
P1E,E,171343,0.8046,0.8799,0.9141,0.9868,1.0000,-2.7255,-9.5465,-1.2730,0.0818,-0.0011,-0.0165
P1E,E,171363,0.8075,0.8807,0.9364,0.9952,1.0000,-2.9117,-9.4921,-1.2610,0.0602,-0.0056,-0.0163
P1E,E,171383,0.8108,0.8786,0.9318,0.9964,0.9915,-2.8902,-9.3903,-1.2017,0.0520,0.0168,-0.0052
P1E,E,171403,0.8061,0.8811,0.9305,0.9872,1.0000,-2.6687,-9.3370,-1.2382,0.0755,0.0233,0.0020
P1E,E,171423,0.8079,0.8778,0.9339,0.9772,1.0000,-2.5208,-9.4088,-1.2807,0.0842,-0.0103,-0.0333
P1E,E,171443,0.8068,0.8790,0.9465,0.9820,1.0000,-2.6219,-9.4310,-1.3215,0.0590,-0.0448,-0.0612
P1E,E,171463,0.8061,0.8803,0.9166,0.9896,1.0000,-2.7704,-9.3430,-1.4083,0.0240,-0.0409,-0.0695
P1E,E,171483,0.8072,0.8778,0.9187,0.9788,1.0000,-2.7471,-9.2065,-1.4568,0.0277,-0.0105,-0.0574
P1E,E,171503,0.8057,0.8799,0.9314,0.9696,1.0000,-2.6734,-9.2903,-1.6089,0.0234,-0.0016,-0.0652
P1E,E,171523,0.8057,0.8794,0.9301,0.9816,1.0000,-2.7746,-9.2556,-1.6250,0.0099,-0.0430,-0.0658
P1E,E,171543,0.8072,0.8815,0.9301,0.9724,1.0000,-2.8309,-9.1837,-1.6202,0.0060,-0.0394,-0.0422
P1E,E,171563,0.8053,0.8799,0.9263,0.9872,1.0000,-2.7477,-9.2939,-1.6921,0.0101,-0.0241,-0.0049
P1E,E,171583,0.8068,0.8807,0.9453,0.9764,1.0000,-2.6716,-9.2747,-1.6412,-0.0019,-0.0397,0.0055
P1E,E,171603,0.8068,0.8786,0.9297,0.9940,1.0000,-2.7884,-9.3388,-1.6035,-0.0064,-0.0229,0.0242
P1E,E,171623,0.8090,0.8790,0.9318,0.9968,1.0000,-2.7088,-9.2879,-1.5005,-0.0141,0.0325,0.0529
P1E,E,171643,0.8075,0.8799,0.9196,0.9916,1.0000,-2.5034,-9.3711,-1.4071,-0.0108,0.0460,0.0426
P1E,E,171663,0.8064,0.8686,0.9242,0.9808,0.9798,-2.6249,-9.4292,-1.2640,-0.0009,0.0004,0.0237
P1E,E,171683,0.8064,0.8782,0.9284,0.9952,1.0000,-2.7112,-9.4795,-1.1239,0.0310,0.0029,0.0008
P1E,E,171703,0.8057,0.8786,0.9289,0.9880,1.0000,-2.8141,-9.6615,-1.2047,0.0288,-0.0041,-0.0108
P1E,E,171723,0.8050,0.8799,0.8994,0.9740,1.0000,-2.9309,-9.5394,-1.2292,0.0100,-0.0151,-0.0120
P1E,E,171743,0.8090,0.8807,0.9255,0.9876,1.0000,-2.8698,-9.4310,-1.2544,0.0326,-0.0338,-0.0193
P1E,E,171763,0.8064,0.8790,0.9267,0.9976,1.0000,-2.9231,-9.4633,-1.3424,0.0352,-0.0634,-0.0326
P1E,E,171783,0.8061,0.8895,0.9238,0.9780,1.0000,-2.8339,-9.4903,-1.3197,0.0298,-0.0630,-0.0217
P1E,E,171803,0.8079,0.8794,0.9259,1.0000,1.0000,-2.5830,-9.3472,-1.3777,0.0144,-0.0754,-0.0392
P1E,E,171823,0.8068,0.8815,0.9305,0.9564,0.9892,-2.6854,-9.3484,-1.3885,0.0226,-0.0707,-0.0594
P1E,E,171843,0.8079,0.8786,0.9398,0.9792,1.0000,-2.6291,-9.3753,-1.4622,0.0068,-0.0526,-0.0636
P1E,E,171863,0.8057,0.8790,0.9183,0.9720,1.0000,-2.7022,-9.3280,-1.4568,-0.0057,-0.0586,-0.0645
P1E,E,171883,0.8075,0.8774,0.9225,0.9960,1.0000,-2.6980,-9.3316,-1.4334,-0.0143,-0.0593,-0.0593
P1E,E,171903,0.8075,0.8799,0.9263,0.9756,1.0000,-2.8088,-9.2340,-1.4310,-0.0103,-0.0585,-0.0548
P1E,E,171923,0.8057,0.8774,0.9293,0.9980,1.0000,-2.7549,-9.2765,-1.4436,0.0132,-0.0510,-0.0444
P1E,E,171943,0.8072,0.8891,0.9314,0.9868,0.9730,-2.8333,-9.3178,-1.4532,0.0129,-0.0464,-0.0294
P1E,E,171963,0.8075,0.8778,0.9162,0.9916,1.0000,-2.7872,-9.2735,-1.4616,0.0028,-0.0298,-0.0103
P1E,E,171983,0.8072,0.8790,0.9289,0.9892,1.0000,-2.7381,-9.3280,-1.4789,0.0084,-0.0163,0.0059
P1E,E,172003,0.8064,0.8786,0.9301,0.9780,1.0000,-2.6932,-9.3094,-1.4322,0.0057,-0.0234,0.0092
P1E,E,172023,0.8075,0.8778,0.9297,0.9804,1.0000,-2.6597,-9.2448,-1.3256,0.0171,-0.0111,0.0117
P1E,E,172043,0.8068,0.8799,0.9284,1.0000,1.0000,-2.6776,-9.3466,-1.3466,0.0136,0.0025,0.0121
P1E,E,172063,0.8068,0.8799,0.9457,0.9708,1.0000,-2.7692,-9.3160,-1.3550,0.0148,-0.0023,0.0052
P1E,E,172083,0.8064,0.8723,0.9322,0.9976,0.9522,-2.7261,-9.4178,-1.3502,0.0128,-0.0033,0.0016
P1E,E,172103,0.8017,0.8786,0.9347,0.9824,1.0000,-2.7872,-9.4639,-1.2951,0.0017,-0.0258,-0.0045
P1E,E,172123,0.8061,0.8769,0.9145,1.0000,1.0000,-2.9058,-9.3196,-1.2095,0.0089,-0.0288,-0.0011
P1E,E,172143,0.8083,0.8778,0.9331,1.0000,0.9956,-2.8656,-9.4633,-1.2765,0.0296,-0.0152,0.0119
P1E,E,172163,0.8064,0.8782,0.9280,0.9676,1.0000,-2.8147,-9.3921,-1.3113,0.0264,-0.0203,0.0147
P1E,E,172183,0.8075,0.8786,0.9280,0.9728,1.0000,-2.7519,-9.3921,-1.3203,0.0377,-0.0188,0.0096
P1E,E,172203,0.8061,0.8778,0.9297,0.9968,1.0000,-2.6830,-9.4346,-1.4220,0.0220,-0.0273,-0.0056
P1E,E,172223,0.8039,0.8878,0.9267,0.9948,0.9599,-2.7243,-9.2975,-1.4915,-0.0065,-0.0486,-0.0218
P1E,E,172243,0.8068,0.8761,0.9293,0.9832,1.0000,-2.7387,-9.3178,-1.4472,-0.0189,-0.0440,-0.0322
P1E,E,172263,0.8061,0.8799,0.9301,0.9664,1.0000,-2.7770,-9.3112,-1.3855,-0.0294,-0.0401,-0.0357
P1E,E,172283,0.8039,0.8803,0.9200,0.9820,1.0000,-2.8112,-9.3555,-1.2981,-0.0249,-0.0385,-0.0329
P1E,E,172303,0.8068,0.8811,0.9112,0.9832,0.9753,-2.8118,-9.3508,-1.2891,-0.0179,-0.0449,-0.0187
P1E,E,172323,0.8072,0.8790,0.9196,0.9964,1.0000,-2.8866,-9.3448,-1.2424,0.0107,-0.0516,-0.0088
P1E,E,172343,0.8079,0.8790,0.9318,0.9948,1.0000,-2.8183,-9.4501,-1.2963,0.0352,-0.0468,0.0091
P1E,E,172363,0.8079,0.8778,0.9318,0.9744,0.9730,-2.7417,-9.3891,-1.3628,0.0286,-0.0369,0.0266
P1E,E,172383,0.8068,0.8782,0.9331,0.9748,1.0000,-2.6968,-9.2915,-1.4274,0.0332,-0.0309,0.0349
P1E,E,172403,0.8064,0.8907,0.9204,0.9732,1.0000,-2.5758,-9.3645,-1.4891,0.0392,-0.0378,0.0211
P1E,E,172423,0.8068,0.8786,0.9301,0.9828,1.0000,-2.6184,-9.3130,-1.5394,0.0309,-0.0386,0.0069
P1E,E,172443,0.8075,0.8782,0.9251,1.0000,0.9933,-2.6740,-9.3220,-1.5262,0.0125,-0.0139,-0.0004
