person_id,label,timestamp,flex1,flex2,flex3,flex4,flex5,ax,ay,az,gx,gy,gz
P1F,F,278523,0.9948,0.9917,0.9862,0.9798,0.9231,-2.0310,-9.3681,-2.4501,0.0136,-0.0480,0.0012
P1F,F,278543,0.9930,0.9929,0.9944,1.0000,0.9695,-2.0639,-9.3855,-2.5004,0.0155,-0.0659,-0.0096
P1F,F,278563,0.9919,1.0000,0.9971,1.0000,1.0000,-2.1100,-9.3945,-2.5094,0.0097,-0.0254,0.0035
P1F,F,278583,0.9937,0.9933,0.9849,0.9776,1.0000,-2.0004,-9.3160,-2.5166,0.0056,-0.0313,0.0033
P1F,F,278603,0.9912,0.9885,0.9930,0.9991,0.9284,-1.9909,-9.2777,-2.4806,0.0079,-0.0436,-0.0091
P1F,F,278623,0.9916,0.9933,1.0000,0.9948,0.9367,-2.1196,-9.3496,-2.4663,0.0149,-0.0505,-0.0143
P1F,F,278643,0.9916,0.9933,0.9926,0.9952,0.9553,-2.0693,-9.3579,-2.4196,0.0060,-0.0297,-0.0080
P1F,F,278663,0.9912,0.9925,0.9944,1.0000,0.9544,-2.1292,-9.3711,-2.4280,-0.0059,-0.0105,0.0016
P1F,F,278683,0.9912,0.9933,0.9912,0.9988,0.9984,-2.0028,-9.3561,-2.3747,-0.0004,-0.0204,-0.0025
P1F,F,278703,0.9941,0.9990,0.9908,0.9859,0.9666,-2.0986,-9.3723,-2.4022,0.0144,-0.0608,-0.0187
P1F,F,278723,0.9912,0.9905,0.9844,0.9991,1.0000,-2.2142,-9.3448,-2.3956,0.0236,-0.0237,-0.0053
P1F,F,278743,0.9905,0.9925,0.9830,1.0000,0.9558,-1.9651,-9.4262,-2.4459,0.0234,-0.0063,0.0123
P1F,F,278763,0.9884,0.9921,0.9903,0.9776,0.9328,-1.9861,-9.3861,-2.4435,0.0031,-0.0454,-0.0044
P1F,F,278783,0.9901,0.9933,0.9894,1.0000,1.0000,-2.1483,-9.3436,-2.4363,0.0043,-0.0576,-0.0080
P1F,F,278803,0.9901,0.9917,0.9985,0.9823,0.9974,-2.1178,-9.2915,-2.4256,0.0059,-0.0436,-0.0064
P1F,F,278823,0.9909,0.9897,0.9944,1.0000,0.9998,-2.1196,-9.3190,-2.4333,0.0249,-0.0385,0.0028
P1F,F,278843,0.9891,0.9929,0.9880,1.0000,0.9358,-2.1076,-9.3436,-2.5088,0.0260,-0.0433,0.0011
P1F,F,278863,0.9905,0.9945,0.9776,1.0000,0.9416,-2.0495,-9.3849,-2.5453,0.0199,-0.0333,0.0007
P1F,F,278883,0.9898,0.9929,0.9917,0.9916,0.9636,-2.0160,-9.3657,-2.5543,0.0077,-0.0370,0.0053
P1F,F,278903,0.9912,0.9921,0.9717,1.0000,0.8830,-2.0046,-9.3873,-2.4884,0.0016,-0.0164,0.0047
P1F,F,278923,0.9901,0.9901,0.9817,0.9984,1.0000,-1.9196,-9.3358,-2.4489,-0.0084,-0.0068,0.0019
P1F,F,278943,0.9905,0.9941,0.9839,0.9927,1.0000,-1.9460,-9.3639,-2.4537,0.0096,-0.0338,-0.0064
P1F,F,278963,0.9894,0.9917,0.9867,0.9909,1.0000,-2.0944,-9.3496,-2.3992,0.0172,-0.0278,-0.0123
P1F,F,278983,0.9912,0.9901,0.9862,1.0000,0.9172,-1.9945,-9.3831,-2.4214,0.0238,-0.0269,-0.0195
P1F,F,279003,0.9912,0.9905,0.9917,0.9916,0.9451,-2.0801,-9.3945,-2.4250,0.0125,-0.0405,-0.0213
P1F,F,279023,0.9909,0.9913,0.9912,1.0000,0.9372,-2.0974,-9.3843,-2.4699,-0.0031,-0.0432,-0.0185
P1F,F,279043,0.9901,0.9897,0.9894,0.9902,0.9607,-2.1465,-9.3166,-2.4268,0.0013,-0.0254,-0.0120
P1F,F,279063,0.9901,0.9901,0.9708,1.0000,0.9612,-2.1232,-9.3891,-2.4657,0.0152,0.0039,-0.0059
P1F,F,279083,0.9912,0.9905,0.9944,1.0000,0.9641,-2.0531,-9.4460,-2.4848,-0.0015,0.0069,-0.0043
P1F,F,279103,0.9873,0.9889,0.9867,0.9830,0.9661,-1.9603,-9.3184,-2.3986,-0.0212,-0.0280,-0.0033
P1F,F,279123,0.9901,0.9873,0.9930,0.9812,0.9328,-2.0537,-9.2681,-2.3926,-0.0067,-0.0581,-0.0152
P1F,F,279143,0.9891,0.9848,0.9771,1.0000,0.8918,-2.0573,-9.3376,-2.3729,0.0337,-0.0605,-0.0167
P1F,F,279163,0.9873,0.9881,0.9912,0.9934,0.9094,-2.1028,-9.3813,-2.4082,0.0428,-0.0492,-0.0196
P1F,F,279183,0.9873,0.9856,0.9844,0.9959,1.0000,-2.1076,-9.4100,-2.5118,0.0404,-0.0117,-0.0011
P1F,F,279203,0.9887,0.9877,0.9835,0.9791,0.8942,-1.9328,-9.2663,-2.5273,0.0273,0.0116,-0.0008
P1F,F,279223,0.9869,0.9860,0.9917,0.9740,0.9490,-1.8633,-9.2999,-2.5914,0.0268,-0.0386,-0.0261
P1F,F,279243,0.9884,0.9873,0.9908,1.0000,0.9333,-2.2046,-9.4094,-2.5675,0.0128,-0.0470,-0.0305
P1F,F,342323,0.1038,0.1047,0.2851,0.3521,0.2992,-1.8639,-9.0987,-3.3440,-0.0180,-0.0318,-0.0119
P1F,F,342343,0.1016,0.1051,0.2869,0.3775,0.3300,-2.0070,-9.1322,-3.2632,-0.0016,-0.0326,-0.0187
P1F,F,342383,0.1031,0.1108,0.2874,0.3718,0.3329,-2.1477,-9.1160,-3.2453,0.0266,-0.0264,-0.0199
P1F,F,342403,0.1016,0.1088,0.2865,0.3714,0.3148,-2.2495,-9.1059,-3.4099,0.0317,-0.0389,-0.0192
P1F,F,342423,0.1020,0.1055,0.2869,0.3686,0.4160,-2.2705,-9.0454,-3.4740,0.0324,-0.0400,-0.0095
P1F,F,342443,0.1016,0.1059,0.2742,0.3711,0.3358,-2.1663,-9.0412,-3.5446,0.0302,-0.0392,0.0095
P1F,F,342463,0.1027,0.1063,0.2874,0.3668,0.3554,-2.0897,-8.9993,-3.6015,0.0258,-0.0514,0.0135
P1F,F,342483,0.1013,0.1088,0.2860,0.3908,0.4111,-2.0909,-8.9969,-3.6416,0.0260,-0.0260,0.0191
P1F,F,342503,0.1031,0.1076,0.2833,0.3696,0.3490,-1.9184,-9.0316,-3.5764,0.0121,-0.0040,0.0165
P1F,F,342523,0.1013,0.1076,0.2847,0.3757,0.4239,-1.8262,-9.0945,-3.5153,-0.0052,-0.0719,-0.0060
P1F,F,342543,0.1006,0.1015,0.3056,0.3678,0.3256,-2.0699,-9.1298,-3.4225,-0.0185,-0.0929,-0.0294
P1F,F,342563,0.0988,0.1043,0.2815,0.3721,0.4107,-2.2076,-9.1011,-3.3949,-0.0111,-0.0560,-0.0087
P1F,F,342583,0.1031,0.1096,0.2738,0.3750,0.3178,-2.0932,-9.1226,-3.3638,-0.0067,-0.0081,0.0087
P1F,F,342603,0.1031,0.1088,0.2847,0.3668,0.4395,-1.9513,-9.0933,-3.3848,0.0119,-0.0278,0.0051
P1F,F,342623,0.1023,0.1071,0.3056,0.3682,0.3515,-2.0795,-9.1340,-3.4369,0.0163,-0.0497,-0.0117
P1F,F,342643,0.0995,0.1055,0.2942,0.3876,0.4459,-2.0513,-9.1017,-3.4434,0.0120,-0.0298,0.0020
P1F,F,342663,0.1020,0.1047,0.2733,0.3556,0.3657,-1.9855,-9.0262,-3.4584,0.0099,-0.0290,-0.0067
P1F,F,342683,0.1034,0.1067,0.2960,0.3754,0.4185,-2.0501,-9.0628,-3.4830,0.0147,-0.0618,-0.0262
P1F,F,342703,0.0991,0.1084,0.2683,0.3876,0.3481,-2.2992,-9.0574,-3.4871,0.0151,-0.0353,-0.0144
P1F,F,342723,0.1027,0.1088,0.2856,0.3664,0.4395,-2.0873,-9.0526,-3.5225,0.0133,0.0011,0.0049
P1F,F,342743,0.1106,0.1084,0.2747,0.3732,0.3143,-2.0214,-9.0795,-3.5255,0.0028,-0.0376,0.0020
P1F,F,342763,0.1009,0.1080,0.2888,0.3793,0.4253,-2.0986,-9.0831,-3.5632,-0.0023,-0.0590,-0.0052
P1F,F,342783,0.1013,0.1088,0.2869,0.3668,0.4116,-2.1196,-9.1130,-3.4794,-0.0136,-0.0268,0.0088
P1F,F,342803,0.1009,0.1055,0.2824,0.3811,0.3960,-1.9358,-9.1532,-3.3506,-0.0047,-0.0201,0.0085
P1F,F,342823,0.1020,0.1092,0.2901,0.3585,0.3569,-1.9328,-9.1065,-3.3452,0.0035,-0.0620,-0.0127
P1F,F,342843,0.1034,0.1100,0.3033,0.3807,0.4268,-2.1022,-9.1214,-3.4027,0.0009,-0.0518,-0.0205
P1F,F,342863,0.0998,0.1080,0.2860,0.3574,0.3510,-2.0711,-9.0921,-3.3884,-0.0045,-0.0261,-0.0155
P1F,F,342883,0.1034,0.1080,0.2851,0.3815,0.3725,-2.0932,-9.0646,-3.3434,0.0049,-0.0229,-0.0175
P1F,F,342903,0.1013,0.1084,0.3047,0.3614,0.3432,-2.0711,-9.1160,-3.3656,0.0288,-0.0400,-0.0171
P1F,F,342923,0.1006,0.1108,0.2965,0.3614,0.3652,-2.1825,-9.0514,-3.4351,0.0336,-0.0485,-0.0144
P1F,F,342943,0.1013,0.1084,0.2883,0.3789,0.3701,-2.1364,-9.0825,-3.4782,0.0444,-0.0059,-0.0032
P1F,F,342963,0.1023,0.1084,0.2851,0.3643,0.3339,-2.0364,-9.0598,-3.4901,0.0344,-0.0241,-0.0023
P1F,F,342983,0.1020,0.1092,0.3097,0.3743,0.3745,-2.1334,-9.0250,-3.5422,0.0236,-0.0428,-0.0055
P1F,F,343003,0.1023,0.1071,0.2919,0.3560,0.3588,-2.0795,-9.0669,-3.5237,0.0100,-0.0297,-0.0031
P1F,F,343023,0.0998,0.1124,0.2842,0.3657,0.3960,-2.0645,-9.0274,-3.4937,0.0005,-0.0358,-0.0024
P1F,F,343043,0.1016,0.1084,0.2865,0.3779,0.4121,-2.0968,-9.0460,-3.4392,0.0123,-0.0392,0.0017
P1F,F,343063,0.0998,0.1059,0.2856,0.3736,0.3187,-2.0136,-9.1298,-3.4207,0.0189,-0.0242,0.0029
P1F,F,343083,0.1020,0.1092,0.2869,0.3643,0.3490,-2.0717,-9.0681,-3.4458,0.0087,-0.0486,-0.0043
P1F,F,343103,0.1027,0.1067,0.2901,0.3746,0.3994,-2.1094,-9.0574,-3.4955,0.0123,-0.0340,-0.0077
P1F,F,343123,0.1009,0.1055,0.2865,0.3958,0.4136,-2.0783,-9.0562,-3.4375,0.0140,-0.0290,-0.0009
P1F,F,343143,0.1009,0.1092,0.2860,0.3743,0.4185,-2.0980,-9.1095,-3.4279,0.0087,-0.0445,-0.0044
P1F,F,343163,0.1034,0.1092,0.2810,0.3725,0.3368,-2.1459,-9.0885,-3.4177,0.0060,-0.0320,-0.0017
P1F,F,343183,0.1027,0.1088,0.2906,0.3607,0.4082,-2.0789,-9.0514,-3.4039,0.0063,-0.0089,0.0041
P1F,F,343203,0.1002,0.1071,0.2819,0.3664,0.3041,-2.0160,-9.1274,-3.3943,0.0132,-0.0352,-0.0024
P1F,F,343223,0.1013,0.1084,0.2937,0.3718,0.4571,-2.1633,-9.1083,-3.4273,0.0079,-0.0215,-0.0047
P1F,F,343243,0.1016,0.1076,0.2969,0.3718,0.4038,-2.0310,-9.0520,-3.3866,0.0220,-0.0108,0.0063
P1F,F,343263,0.1020,0.1059,0.2874,0.3664,0.4111,-2.0537,-9.0831,-3.4303,0.0248,-0.0372,-0.0043
P1F,F,343283,0.1016,0.1092,0.2865,0.3646,0.3539,-2.1459,-9.0460,-3.4398,0.0272,-0.0169,-0.0044
P1F,F,343303,0.1006,0.1092,0.2878,0.3754,0.4395,-2.0519,-9.0280,-3.4698,0.0405,-0.0077,0.0005
P1F,F,343323,0.1020,0.1084,0.3160,0.3700,0.3305,-2.0190,-9.1430,-3.5057,0.0366,-0.0265,-0.0013
P1F,F,343343,0.1006,0.1076,0.2860,0.3703,0.4234,-2.0980,-9.1166,-3.5261,0.0180,-0.0509,-0.0068
P1F,F,343363,0.1006,0.1080,0.2883,0.3689,0.3261,-2.0759,-9.0508,-3.5141,0.0061,-0.0453,-0.0028
P1F,F,343383,0.1002,0.1104,0.2928,0.3668,0.4092,-2.1226,-8.9855,-3.4734,0.0184,-0.0457,0.0065
P1F,F,343403,0.1009,0.1080,0.2960,0.3607,0.3486,-2.1471,-9.0376,-3.4704,0.0246,-0.0316,0.0012
P1F,F,343423,0.1002,0.1059,0.2797,0.3764,0.4043,-2.1226,-9.0819,-3.4692,0.0272,0.0151,0.0049
P1F,F,343443,0.0991,0.1063,0.2838,0.3686,0.3085,-1.9765,-9.1376,-3.4764,0.0165,0.0211,0.0072
P1F,F,343463,0.0998,0.1019,0.2897,0.3531,0.3544,-1.9717,-9.1232,-3.4404,-0.0020,-0.0041,-0.0080
P1F,F,343483,0.1023,0.1039,0.2851,0.3621,0.3168,-1.9998,-9.0508,-3.4488,-0.0152,-0.0165,-0.0141
P1F,F,343503,0.1013,0.1063,0.2906,0.3650,0.3456,-2.0124,-8.9616,-3.4177,0.0117,-0.0293,-0.0151
P1F,F,343523,0.0991,0.1100,0.2719,0.3725,0.3490,-2.0849,-9.0616,-3.4782,0.0366,-0.0156,-0.0136
P1F,F,343543,0.0998,0.1092,0.2710,0.3524,0.3701,-2.1346,-9.0454,-3.4794,0.0341,-0.0087,-0.0047
P1F,F,343563,0.1020,0.1067,0.2797,0.3729,0.3691,-2.1890,-9.1556,-3.5542,0.0211,0.0131,0.0013
P1F,F,343583,0.1009,0.1088,0.2842,0.3582,0.4048,-2.1501,-9.1053,-3.5728,-0.0081,0.0124,0.0077
P1F,F,343603,0.1009,0.1177,0.2874,0.3639,0.3994,-2.0855,-9.1071,-3.5165,-0.0184,-0.0068,0.0201
P1F,F,343623,0.1002,0.1067,0.2838,0.3585,0.4522,-2.0705,-9.1885,-3.3943,-0.0253,-0.0534,0.0169
P1F,F,343643,0.0991,0.1059,0.2892,0.3678,0.3554,-2.1370,-9.1741,-3.2351,-0.0376,-0.0262,0.0238
P1F,F,343663,0.0998,0.1084,0.2742,0.3524,0.3099,-2.0010,-9.0825,-3.0740,-0.0212,-0.0047,0.0240
P1F,F,343683,0.0963,0.1051,0.2869,0.3721,0.4204,-1.9795,-9.1023,-3.0477,0.0266,-0.0338,0.0072
P1F,F,343703,0.1013,0.1092,0.2897,0.3549,0.3681,-2.1394,-9.1915,-3.1788,0.0489,-0.0406,-0.0005
P1F,F,343723,0.0941,0.1084,0.2856,0.3707,0.4126,-2.1759,-9.0909,-3.3237,0.0462,-0.0293,0.0011
P1F,F,343743,0.1002,0.1084,0.2983,0.3657,0.3050,-2.1926,-9.0149,-3.4602,0.0636,-0.0281,0.0121
P1F,F,343763,0.1006,0.1140,0.2869,0.3714,0.3965,-2.1477,-9.0196,-3.5416,0.0727,-0.0352,0.0230
P1F,F,343783,0.1009,0.1023,0.2874,0.3700,0.3422,-2.1022,-9.0011,-3.5782,0.0758,-0.0430,0.0228
P1F,F,343803,0.0998,0.1084,0.2906,0.3711,0.4063,-2.0741,-9.0741,-3.6692,0.0445,-0.0167,0.0203
P1F,F,343823,0.1016,0.1055,0.2892,0.3761,0.3671,-1.9232,-9.0226,-3.5835,0.0260,-0.0278,0.0124
P1F,F,343843,0.1009,0.1043,0.2833,0.3804,0.4033,-2.0807,-9.0394,-3.6027,0.0312,-0.0228,0.0099
P1F,F,343863,0.0984,0.1080,0.2906,0.3614,0.3241,-1.9795,-9.0538,-3.5524,0.0293,-0.0145,0.0205
P1F,F,343883,0.1002,0.1019,0.2892,0.3700,0.3241,-1.9705,-9.0915,-3.5231,0.0225,-0.0500,0.0119
P1F,F,343903,0.0991,0.1071,0.2969,0.3786,0.3745,-2.1621,-9.0568,-3.5069,0.0144,-0.0264,0.0069
P1F,F,343923,0.1009,0.1104,0.2956,0.3628,0.4116,-2.0441,-9.1484,-3.4758,0.0149,-0.0033,0.0168
P1F,F,343943,0.1002,0.1076,0.2883,0.3556,0.3549,-1.9603,-9.0741,-3.4045,0.0187,-0.0284,0.0187
P1F,F,343963,0.1016,0.1071,0.2892,0.3729,0.3926,-1.9370,-9.1232,-3.4351,0.0169,-0.0661,0.0037
P1F,F,343983,0.1009,0.1027,0.2910,0.3621,0.4199,-2.0555,-9.0735,-3.4716,0.0145,-0.0691,-0.0025
P1F,F,344003,0.0981,0.1088,0.2874,0.3664,0.4151,-2.0280,-9.0041,-3.4889,0.0281,-0.0298,0.0017
P1F,F,344023,0.0970,0.1035,0.2892,0.3779,0.3559,-1.9016,-9.0831,-3.5057,0.0350,-0.0260,-0.0005
P1F,F,344043,0.1002,0.1067,0.2956,0.3675,0.4273,-1.9322,-9.0448,-3.4991,0.0454,-0.0706,-0.0184
P1F,F,344063,0.1052,0.1120,0.2851,0.3732,0.4009,-2.1340,-9.1005,-3.5967,0.0462,-0.0400,-0.0017
P1F,F,344083,0.0981,0.1035,0.2838,0.3703,0.4287,-1.9849,-9.0424,-3.6536,0.0245,0.0344,0.0238
P1F,F,344103,0.0973,0.1080,0.2969,0.3682,0.3231,-1.6304,-8.9460,-3.6662,0.0200,0.0151,0.0065
P1F,F,344123,0.0984,0.1059,0.2892,0.3732,0.4092,-1.9280,-9.0675,-3.7434,0.0220,-0.0438,-0.0266
P1F,F,344143,0.1009,0.0978,0.3042,0.3470,0.2870,-2.0298,-9.0622,-3.7476,0.0057,0.0072,-0.0199
P1F,F,344163,0.0984,0.1055,0.2924,0.3607,0.4463,-1.9537,-9.1172,-3.6338,-0.0040,0.0416,-0.0019
P1F,F,344183,0.1002,0.1084,0.2947,0.3815,0.4317,-1.9100,-9.1903,-3.5374,-0.0326,0.0153,-0.0188
P1F,F,344203,0.0988,0.1063,0.2928,0.3603,0.4009,-2.0962,-9.0957,-3.3961,-0.0536,-0.0032,-0.0290
P1F,F,344223,0.1002,0.1047,0.2924,0.3782,0.4004,-2.0920,-9.0789,-3.2453,-0.0341,0.0125,-0.0203
P1F,F,344243,0.0981,0.1100,0.2674,0.3739,0.4239,-2.2010,-9.1071,-3.1854,-0.0093,0.0361,-0.0161
P1F,F,344263,0.0963,0.1112,0.2892,0.3535,0.3632,-2.2226,-9.1466,-3.2650,-0.0001,0.0553,-0.0121
P1F,F,344283,0.0988,0.1080,0.3024,0.3542,0.3329,-2.1950,-9.0532,-3.3470,0.0057,0.0393,-0.0040
P1F,F,344303,0.0973,0.1039,0.2892,0.3682,0.4644,-2.1777,-9.0232,-3.4177,0.0300,-0.0149,-0.0037
P1F,F,344323,0.1006,0.1084,0.2919,0.3535,0.3691,-2.2375,-9.0184,-3.4716,0.0485,-0.0240,0.0055
P1F,F,344343,0.1002,0.1092,0.2860,0.3811,0.4048,-2.0621,-9.0669,-3.5782,0.0341,-0.0120,0.0119
P1F,F,344363,0.0981,0.1084,0.2956,0.3539,0.3275,-2.0070,-9.0879,-3.5991,-0.0005,-0.0286,-0.0013
P1F,F,344383,0.1002,0.1055,0.2915,0.3689,0.4503,-2.0244,-8.9933,-3.5967,-0.0236,-0.0290,-0.0119
P1F,F,344403,0.1006,0.1080,0.2851,0.3664,0.3505,-2.1400,-9.0268,-3.5015,-0.0215,-0.0228,-0.0063
P1F,F,344423,0.0977,0.1059,0.3019,0.3506,0.3422,-2.1148,-9.0442,-3.3728,-0.0071,-0.0069,0.0029
P1F,F,344443,0.0991,0.1071,0.2874,0.3571,0.3339,-2.1771,-9.1346,-3.3524,-0.0039,-0.0047,0.0051
P1F,F,344463,0.0991,0.1063,0.2856,0.3650,0.4058,-2.1711,-9.1358,-3.3351,-0.0141,0.0051,0.0105
P1F,F,344483,0.0970,0.1047,0.2883,0.3628,0.3402,-2.0950,-9.1160,-3.2955,-0.0040,0.0171,0.0201
P1F,F,344503,0.0966,0.1047,0.2906,0.3603,0.4581,-1.9543,-9.1286,-3.2920,0.0117,-0.0284,0.0087
P1F,F,344523,0.0991,0.1076,0.3028,0.3714,0.3530,-2.1058,-9.0598,-3.2734,0.0241,-0.0654,-0.0076
P1F,F,344543,0.0970,0.0986,0.3019,0.3639,0.4346,-2.0974,-9.1484,-3.3153,0.0334,-0.0416,-0.0076
P1F,F,344563,0.0998,0.1039,0.2883,0.3596,0.3261,-1.9753,-9.0640,-3.3872,0.0293,-0.0389,-0.0103
P1F,F,344583,0.0984,0.1100,0.2874,0.3757,0.4385,-2.0256,-9.0783,-3.4596,0.0400,-0.0763,-0.0241
P1F,F,344603,0.0973,0.1084,0.2888,0.3653,0.4043,-2.1914,-9.0711,-3.5159,0.0449,-0.0641,-0.0175
P1F,F,344623,0.0988,0.1124,0.2874,0.3689,0.4630,-2.1274,-9.0550,-3.5015,0.0340,-0.0430,-0.0045
P1F,F,344643,0.0988,0.1055,0.3060,0.3703,0.3960,-2.0801,-9.0346,-3.5692,0.0290,-0.0437,0.0008
P1F,F,344663,0.0991,0.0982,0.2869,0.3678,0.4292,-2.0699,-9.0646,-3.5997,0.0200,-0.0548,-0.0056
P1F,F,344683,0.0970,0.1100,0.2883,0.3754,0.3383,-2.1136,-9.0364,-3.5548,0.0083,-0.0401,-0.0060
P1F,F,344703,0.0973,0.1063,0.2910,0.3539,0.3559,-2.0430,-9.0454,-3.5207,0.0099,-0.0346,-0.0021
P1F,F,344723,0.0973,0.1051,0.2851,0.3660,0.3926,-2.0388,-9.0568,-3.4967,-0.0008,-0.0489,-0.0093
P1F,F,344743,0.0949,0.1100,0.2815,0.3599,0.4048,-2.1292,-9.0867,-3.4764,0.0108,-0.0424,-0.0031
P1F,F,344763,0.0973,0.1071,0.2960,0.3657,0.3965,-1.9933,-9.0669,-3.4626,0.0132,-0.0320,0.0024
P1F,F,344783,0.0981,0.1165,0.2874,0.3417,0.3994,-2.0783,-9.0490,-3.4554,0.0116,-0.0321,0.0015
P1F,F,344803,0.1009,0.1071,0.2851,0.3668,0.3451,-2.0178,-9.0957,-3.5147,0.0072,-0.0325,-0.0015
P1F,F,344823,0.0991,0.1092,0.2888,0.3614,0.3549,-2.0681,-9.0316,-3.4734,-0.0052,-0.0249,-0.0067
P1F,F,344843,0.0995,0.1084,0.2892,0.3757,0.4263,-1.9861,-9.0897,-3.4099,0.0061,-0.0620,-0.0153
P1F,F,344863,0.0966,0.1108,0.2910,0.3643,0.4600,-2.2106,-9.1154,-3.4129,0.0017,-0.0721,-0.0213
P1F,F,344883,0.0988,0.1051,0.2888,0.3556,0.3725,-2.1711,-9.0825,-3.4219,0.0103,-0.0264,0.0007
P1F,F,344903,0.0991,0.1084,0.2860,0.3517,0.2997,-1.9813,-9.1520,-3.3728,0.0096,-0.0253,0.0085
P1F,F,344923,0.0995,0.1039,0.2838,0.3668,0.3569,-1.9819,-9.0867,-3.4081,-0.0017,-0.0538,-0.0059
P1F,F,344943,0.0998,0.1096,0.2947,0.3492,0.3334,-2.0400,-9.0466,-3.4111,0.0107,-0.0641,-0.0143
P1F,F,344963,0.0949,0.1096,0.2924,0.3696,0.4283,-2.0986,-9.0634,-3.4381,0.0230,-0.0448,-0.0109
P1F,F,344983,0.0970,0.1051,0.2910,0.3675,0.3104,-2.0825,-9.0705,-3.4386,0.0297,-0.0234,-0.0036
P1F,F,345003,0.0991,0.1084,0.2901,0.3703,0.4107,-2.0687,-9.0951,-3.4692,0.0237,-0.0317,-0.0071
P1F,F,345023,0.0984,0.1084,0.2924,0.3632,0.3442,-2.0944,-9.0514,-3.5267,0.0069,-0.0413,-0.0121
P1F,F,345043,0.0973,0.1076,0.3010,0.3535,0.3354,-2.0879,-9.0771,-3.4979,0.0079,-0.0354,-0.0027
P1F,F,345063,0.0970,0.1071,0.2728,0.3542,0.3192,-2.0316,-9.1065,-3.4782,0.0097,-0.0446,-0.0049
P1F,F,345083,0.0981,0.1015,0.2892,0.3628,0.3999,-2.0813,-9.1017,-3.4566,0.0048,-0.0356,-0.0064
P1F,F,345103,0.0970,0.1112,0.2965,0.3556,0.3129,-2.0471,-9.0693,-3.4590,-0.0003,-0.0265,-0.0031
P1F,F,345123,0.0981,0.1108,0.2847,0.3510,0.3686,-2.0328,-9.0262,-3.4560,0.0096,-0.0280,-0.0071
P1F,F,345143,0.0991,0.1067,0.2897,0.3625,0.3500,-2.0669,-9.0975,-3.4177,0.0163,-0.0362,-0.0149
P1F,F,345163,0.0984,0.1063,0.2987,0.3607,0.4058,-2.0932,-9.0472,-3.4554,0.0216,-0.0457,-0.0179
P1F,F,345183,0.0945,0.1120,0.2933,0.3739,0.4019,-2.1956,-9.0891,-3.4572,0.0222,-0.0368,-0.0131
P1F,F,345203,0.0984,0.1120,0.2883,0.3743,0.4522,-2.0849,-9.0909,-3.4848,-0.0015,-0.0320,-0.0105
P1F,F,345223,0.0909,0.1076,0.3092,0.3818,0.3984,-2.1555,-9.0089,-3.5117,-0.0003,-0.0361,-0.0121
P1F,F,345243,0.0988,0.1067,0.2833,0.3657,0.3569,-2.1040,-9.0807,-3.4698,0.0152,-0.0143,0.0037
P1F,F,345263,0.0984,0.1092,0.2897,0.3729,0.4160,-2.0412,-9.1142,-3.4422,-0.0048,-0.0226,-0.0009
P1F,F,345283,0.0966,0.1096,0.2915,0.3876,0.4312,-2.0412,-9.0957,-3.3961,-0.0009,-0.0401,-0.0131
P1F,F,345303,0.0966,0.1104,0.2919,0.3958,0.3671,-2.0699,-9.1017,-3.4039,0.0060,-0.0377,-0.0075
P1F,F,345323,0.0956,0.1080,0.3010,0.3696,0.4077,-2.0513,-9.0352,-3.4404,0.0049,-0.0277,-0.0064
P1F,F,345343,0.0998,0.1100,0.2937,0.3617,0.3598,-2.0819,-9.0119,-3.4464,0.0180,-0.0270,-0.0072
P1F,F,345363,0.0973,0.1157,0.2910,0.3625,0.4561,-2.1082,-9.0831,-3.4386,0.0218,-0.0237,-0.0075
P1F,F,345383,0.0981,0.1047,0.2919,0.3539,0.3784,-2.1058,-9.1214,-3.4776,-0.0012,-0.0156,-0.0171
P1F,F,345403,0.0991,0.1100,0.2856,0.3549,0.3461,-2.1268,-9.0113,-3.4955,-0.0145,-0.0262,-0.0175
P1F,F,345423,0.0973,0.1092,0.2974,0.3850,0.3427,-2.1986,-8.9903,-3.4159,-0.0013,-0.0104,-0.0076
P1F,F,345443,0.1013,0.1084,0.2660,0.3621,0.4747,-2.0627,-9.1208,-3.3902,0.0180,0.0057,0.0108
P1F,F,345463,0.0973,0.1063,0.3074,0.3797,0.4170,-1.9992,-9.0909,-3.3303,0.0221,-0.0385,0.0004
P1F,F,345483,0.0973,0.1088,0.2910,0.3858,0.4434,-2.0789,-9.0969,-3.3902,0.0284,-0.0666,-0.0084
P1F,F,345503,0.0952,0.1100,0.2937,0.3861,0.3603,-2.1154,-9.0903,-3.4339,0.0225,-0.0436,-0.0116
P1F,F,345523,0.0998,0.1076,0.2860,0.3650,0.3813,-2.0603,-9.0640,-3.4087,0.0191,-0.0366,-0.0101
P1F,F,345543,0.0963,0.1076,0.2974,0.3772,0.4312,-2.1034,-9.0879,-3.4937,0.0220,-0.0441,-0.0208
P1F,F,345563,0.0973,0.1084,0.2865,0.3453,0.3490,-2.1849,-9.0454,-3.5075,0.0185,-0.0384,-0.0120
P1F,F,345583,0.0988,0.1067,0.3333,0.3682,0.4160,-2.0950,-9.0657,-3.5201,0.0047,-0.0442,-0.0080
P1F,F,345603,0.0977,0.1067,0.2847,0.3564,0.3730,-2.1837,-9.0149,-3.4566,0.0060,-0.0578,-0.0064
P1F,F,345623,0.0988,0.1063,0.2883,0.3617,0.3510,-2.1417,-9.1274,-3.4357,0.0085,-0.0268,0.0044
P1F,F,345643,0.0977,0.1063,0.2947,0.3528,0.3632,-2.0040,-9.0640,-3.3902,0.0008,-0.0278,0.0029
P1F,F,345663,0.0963,0.1084,0.2815,0.3736,0.4507,-2.0082,-9.1184,-3.4303,0.0093,-0.0282,-0.0040
P1F,F,345683,0.0981,0.1063,0.2901,0.3628,0.3691,-1.9597,-9.0538,-3.4171,0.0057,-0.0368,-0.0131
P1F,F,345703,0.0959,0.1080,0.2969,0.3635,0.3427,-2.0843,-9.0376,-3.3782,0.0119,-0.0601,-0.0183
P1F,F,345723,0.0995,0.1084,0.2874,0.3610,0.3539,-2.1340,-9.1382,-3.4165,0.0217,-0.0576,-0.0169
P1F,F,345743,0.0966,0.1080,0.2728,0.3678,0.4439,-2.1837,-9.1047,-3.4530,0.0144,-0.0358,-0.0079
P1F,F,345763,0.0984,0.1055,0.2897,0.3686,0.3759,-2.1058,-9.0496,-3.4416,0.0135,-0.0212,-0.0063
P1F,F,345783,0.0970,0.1092,0.2847,0.3700,0.4219,-2.1334,-9.0496,-3.4584,0.0176,-0.0432,-0.0087
P1F,F,345803,0.0952,0.1092,0.2924,0.3564,0.3569,-2.1459,-9.0532,-3.4782,0.0080,-0.0352,-0.0061
P1F,F,345823,0.0995,0.1043,0.2937,0.3646,0.3549,-2.0723,-9.0747,-3.4680,-0.0008,-0.0360,-0.0072
P1F,F,345843,0.0977,0.1080,0.2842,0.3757,0.4063,-2.1040,-9.0951,-3.5051,-0.0067,-0.0500,-0.0151
P1F,F,345863,0.0991,0.1071,0.2851,0.3789,0.3794,-2.1555,-9.0119,-3.4243,0.0044,-0.0417,-0.0137
P1F,F,345883,0.0973,0.1092,0.2924,0.3646,0.4366,-2.0711,-9.0939,-3.4207,0.0153,-0.0203,0.0041
P1F,F,345903,0.0977,0.1100,0.2901,0.3807,0.4742,-2.0561,-9.0634,-3.3746,0.0144,-0.0192,-0.0004
P1F,F,345923,0.0998,0.1076,0.3319,0.3700,0.4058,-2.1010,-9.1178,-3.4722,0.0155,-0.0085,0.0019
P1F,F,345943,0.0973,0.1096,0.2928,0.3764,0.3950,-2.0609,-9.0634,-3.4554,0.0027,-0.0341,-0.0127
P1F,F,345963,0.0941,0.1088,0.2915,0.3546,0.3750,-2.1938,-9.1089,-3.4776,-0.0040,-0.0341,-0.0135
P1F,F,345983,0.0995,0.1088,0.2892,0.3535,0.3373,-2.0825,-9.0071,-3.4273,-0.0103,-0.0457,-0.0124
P1F,F,346003,0.0952,0.1067,0.2933,0.3492,0.3681,-2.2501,-9.0903,-3.3913,0.0033,-0.0404,-0.0065
P1F,F,346023,0.0991,0.1067,0.2801,0.3729,0.3803,-2.0597,-9.0125,-3.3644,0.0052,-0.0240,0.0040
P1F,F,346043,0.0970,0.1136,0.2869,0.3660,0.3437,-2.0938,-9.1071,-3.3644,0.0211,-0.0513,-0.0032
P1F,F,346063,0.0998,0.1088,0.3010,0.3643,0.3393,-2.0956,-9.0855,-3.3752,0.0192,-0.0412,-0.0101
P1F,F,346083,0.0977,0.1051,0.3083,0.3764,0.4082,-2.0220,-9.0765,-3.3584,0.0189,-0.0384,-0.0129
P1F,F,346103,0.0998,0.1084,0.2942,0.3592,0.3779,-2.1986,-9.0717,-3.4105,0.0131,-0.0426,-0.0137
P1F,F,346123,0.0973,0.1080,0.2942,0.3564,0.3495,-2.1358,-9.0442,-3.4446,0.0133,-0.0168,-0.0081
P1F,F,346143,0.0977,0.1088,0.2906,0.3621,0.3280,-2.1585,-9.0059,-3.4704,0.0123,-0.0552,-0.0176
P1F,F,346163,0.0984,0.1071,0.2751,0.3793,0.3393,-2.2489,-9.0071,-3.5416,0.0099,-0.0534,-0.0100
P1F,F,346183,0.0963,0.1080,0.2874,0.3399,0.3652,-2.1645,-9.0915,-3.4949,0.0128,-0.0358,0.0003
P1F,F,346203,0.0949,0.1092,0.2951,0.3750,0.4111,-2.1028,-9.0993,-3.4710,0.0001,-0.0394,-0.0016
P1F,F,346223,0.0973,0.1092,0.2792,0.3610,0.4087,-2.1232,-9.1059,-3.4201,-0.0025,-0.0277,0.0037
P1F,F,346243,0.0984,0.1177,0.2910,0.3564,0.3984,-1.9927,-9.0484,-3.3542,0.0037,-0.0117,0.0075
P1F,F,346263,0.0998,0.1088,0.3019,0.3718,0.4053,-1.9753,-9.0855,-3.3937,0.0208,-0.0474,-0.0057
P1F,F,346283,0.0981,0.1051,0.3015,0.3560,0.4410,-2.1274,-9.1053,-3.4249,0.0117,-0.0417,-0.0184
P1F,F,346303,0.0977,0.1084,0.2933,0.3496,0.3358,-2.0813,-9.0831,-3.4285,0.0048,-0.0244,-0.0137
P1F,F,346323,0.0970,0.1011,0.2933,0.3664,0.4390,-2.1052,-9.0580,-3.3806,0.0116,-0.0310,-0.0171
P1F,F,346343,0.0966,0.1067,0.2937,0.3811,0.3466,-2.1974,-9.0819,-3.4117,0.0207,-0.0322,-0.0085
P1F,F,346363,0.0973,0.1076,0.2606,0.3625,0.4263,-2.1825,-9.0873,-3.4129,0.0249,-0.0257,-0.0053
P1F,F,346383,0.0984,0.1023,0.2910,0.3671,0.3530,-2.1286,-9.0927,-3.4416,0.0135,-0.0320,-0.0043
P1F,F,346403,0.0888,0.1067,0.2910,0.3696,0.4287,-2.0705,-9.0346,-3.4506,0.0073,-0.0380,-0.0052
P1F,F,346423,0.0981,0.1080,0.2924,0.3553,0.3168,-2.1405,-9.0149,-3.4345,0.0201,-0.0430,-0.0107
P1F,F,346443,0.0970,0.1088,0.2924,0.3797,0.4371,-2.0974,-9.1107,-3.4255,0.0242,-0.0338,-0.0105
P1F,F,346463,0.1070,0.1051,0.2910,0.3721,0.4341,-2.1513,-9.0933,-3.4440,0.0167,-0.0348,-0.0135
P1F,F,346483,0.0973,0.1076,0.2978,0.3650,0.3696,-2.1118,-9.0681,-3.4542,0.0116,-0.0365,-0.0091
P1F,F,346503,0.0973,0.1063,0.2924,0.3804,0.4239,-2.1471,-9.0771,-3.4865,0.0159,-0.0392,-0.0085
P1F,F,346523,0.0959,0.1112,0.3024,0.3865,0.4107,-2.0795,-9.0190,-3.4602,0.0087,-0.0338,-0.0053
P1F,F,346543,0.0945,0.1067,0.2756,0.3513,0.3363,-2.1537,-9.0622,-3.4434,0.0128,-0.0522,-0.0104
P1F,F,346563,0.0973,0.1100,0.2901,0.3757,0.4283,-2.1747,-9.1023,-3.4333,0.0056,-0.0249,-0.0087
P1F,F,346583,0.0977,0.1084,0.2910,0.3836,0.3334,-2.1405,-9.0933,-3.4422,0.0025,-0.0264,-0.0020
P1F,F,346603,0.0952,0.1067,0.2878,0.3729,0.4273,-2.0831,-9.1298,-3.3668,0.0051,-0.0592,-0.0024
P1F,F,346623,0.0970,0.1067,0.2906,0.3607,0.3354,-2.2375,-9.1538,-3.3710,0.0100,-0.0468,-0.0007
P1F,F,346643,0.0963,0.1136,0.2842,0.3617,0.4107,-2.0034,-9.0538,-3.4207,0.0067,-0.0248,0.0149
P1F,F,346663,0.0938,0.1063,0.2924,0.3596,0.4199,-1.9394,-9.0735,-3.5021,0.0228,-0.0385,0.0020
P1F,F,346683,0.0949,0.1092,0.2897,0.3775,0.4512,-1.9597,-9.0651,-3.5578,0.0144,-0.0392,-0.0155
P1F,F,346703,0.0970,0.1055,0.2733,0.3789,0.4292,-2.0926,-8.9532,-3.5482,0.0064,-0.0262,-0.0152
P1F,F,346723,0.1002,0.1084,0.2738,0.3650,0.4410,-2.0130,-8.9819,-3.4704,0.0205,-0.0257,-0.0113
P1F,F,346743,0.0952,0.1092,0.2956,0.3714,0.4307,-2.0693,-9.0663,-3.5386,0.0183,-0.0329,-0.0201
P1F,F,346763,0.0988,0.1051,0.2965,0.3492,0.4107,-2.1861,-9.0532,-3.5698,0.0057,-0.0357,-0.0221
P1F,F,346783,0.0973,0.1080,0.2987,0.3815,0.4082,-2.3447,-9.0424,-3.5542,-0.0045,-0.0041,-0.0207
P1F,F,346803,0.0973,0.1092,0.3074,0.3703,0.3696,-2.3046,-9.0172,-3.4656,-0.0173,0.0101,-0.0104
P1F,F,346823,0.0966,0.1059,0.2919,0.3815,0.4243,-2.3262,-9.0436,-3.3961,-0.0220,-0.0155,-0.0093
P1F,F,346843,0.0934,0.1043,0.2965,0.3592,0.3192,-2.3531,-9.0981,-3.3123,-0.0392,-0.0097,-0.0069
P1F,F,346863,0.0984,0.1080,0.2915,0.3614,0.4126,-2.3166,-9.1232,-3.2213,-0.0334,0.0003,0.0000
P1F,F,346883,0.0945,0.1071,0.2910,0.3754,0.3608,-2.2777,-9.1466,-3.1255,-0.0309,-0.0207,-0.0011
P1F,F,346903,0.0966,0.1076,0.2901,0.3456,0.4283,-2.2789,-9.0747,-3.1117,-0.0200,-0.0490,0.0107
P1F,F,346923,0.0977,0.1067,0.2910,0.3625,0.3295,-2.2417,-9.1274,-3.1231,0.0017,-0.0458,0.0203
P1F,F,346943,0.0966,0.1076,0.2928,0.3729,0.3642,-2.1549,-9.1334,-3.1363,0.0234,-0.0556,0.0157
P1F,F,346963,0.0988,0.1047,0.2906,0.3621,0.3525,-2.2519,-9.1472,-3.2429,0.0280,-0.0561,0.0104
P1F,F,346983,0.0973,0.1108,0.2937,0.3610,0.3632,-2.1992,-9.0861,-3.2740,0.0160,-0.0334,0.0173
P1F,F,347003,0.0963,0.1051,0.2874,0.3693,0.3197,-2.1501,-9.0250,-3.3422,0.0289,-0.0534,0.0208
P1F,F,347023,0.0952,0.1100,0.2910,0.3761,0.4234,-2.2154,-9.0526,-3.4345,0.0260,-0.0797,0.0117
P1F,F,347043,0.0963,0.1100,0.2901,0.3589,0.3632,-2.3292,-8.9735,-3.4542,0.0316,-0.0564,0.0216
P1F,F,347063,0.0952,0.1080,0.2956,0.3599,0.3838,-2.2525,-8.9580,-3.4836,0.0493,-0.0334,0.0386
P1F,F,347083,0.0959,0.1067,0.2937,0.3754,0.3530,-2.2537,-8.9897,-3.5584,0.0536,-0.0457,0.0484
P1F,F,347103,0.0938,0.1067,0.2992,0.3686,0.3290,-2.2064,-9.0143,-3.6374,0.0450,-0.0233,0.0679
P1F,F,347123,0.0970,0.1055,0.2892,0.3549,0.4072,-2.0537,-9.0244,-3.6835,0.0285,-0.0224,0.0773
P1F,F,347143,0.0963,0.1067,0.2901,0.3746,0.4072,-1.9214,-9.0556,-3.6955,0.0059,-0.0208,0.0706
P1F,F,347163,0.0949,0.1116,0.2924,0.3628,0.3324,-1.8747,-9.1119,-3.5847,-0.0069,-0.0477,0.0544
P1F,F,347183,0.0963,0.1100,0.2937,0.3599,0.3246,-2.0190,-9.1789,-3.5177,-0.0266,-0.0208,0.0492
P1F,F,347203,0.0966,0.1092,0.2892,0.3743,0.3618,-1.8154,-9.0568,-3.3890,-0.0277,-0.0008,0.0538
P1F,F,347223,0.0949,0.1084,0.3056,0.3528,0.3774,-1.8394,-9.1729,-3.3572,-0.0064,-0.0207,0.0365
P1F,F,347243,0.1006,0.1015,0.2919,0.3807,0.4204,-1.8801,-9.1556,-3.4105,-0.0060,-0.0209,0.0273
P1F,F,347263,0.0945,0.1076,0.2937,0.3546,0.3755,-1.8783,-9.1867,-3.4327,-0.0032,-0.0056,0.0200
P1F,F,347283,0.0988,0.1096,0.2901,0.3689,0.4449,-1.9567,-9.1909,-3.3764,0.0011,0.0023,0.0224
P1F,F,347303,0.0938,0.1043,0.3051,0.3585,0.3471,-1.9190,-9.1891,-3.2914,-0.0059,0.0024,0.0258
P1F,F,347323,0.0970,0.1092,0.2942,0.3836,0.4121,-1.9310,-9.1741,-3.2111,0.0017,-0.0169,0.0240
P1F,F,347343,0.0952,0.1104,0.3106,0.3574,0.3549,-1.9891,-9.2142,-3.2021,0.0103,-0.0152,0.0172
P1F,F,347363,0.0945,0.1092,0.2915,0.3750,0.4092,-1.9382,-9.1514,-3.2063,0.0115,-0.0180,0.0133
P1F,F,347383,0.0970,0.1080,0.2910,0.3549,0.3725,-1.9537,-9.1412,-3.2512,0.0157,-0.0488,0.0021
P1F,F,347403,0.0945,0.1080,0.2860,0.3686,0.4258,-2.0340,-9.1675,-3.3021,0.0265,-0.0683,-0.0043
P1F,F,347423,0.0966,0.1092,0.2874,0.3707,0.3011,-2.0441,-9.1687,-3.3512,0.0304,-0.0534,0.0067
P1F,F,347443,0.0938,0.1084,0.2915,0.3689,0.4415,-1.9076,-9.1292,-3.4003,0.0332,-0.0452,0.0192
P1F,F,347463,0.0934,0.1104,0.2851,0.3725,0.3706,-1.8262,-9.1113,-3.4722,0.0341,-0.0580,0.0128
P1F,F,347483,0.0970,0.1108,0.2897,0.3689,0.4009,-1.7717,-9.1160,-3.5356,0.0306,-0.0624,-0.0001
P1F,F,347503,0.0966,0.1140,0.2883,0.3732,0.4400,-1.7579,-9.1119,-3.5656,0.0120,-0.0556,-0.0169
P1F,F,347523,0.0949,0.1108,0.2924,0.3539,0.3999,-1.8651,-9.0771,-3.6015,-0.0081,-0.0474,-0.0270
P1F,F,347543,0.0977,0.1088,0.2883,0.3919,0.3046,-1.8639,-9.1119,-3.5608,-0.0151,-0.0238,-0.0293
P1F,F,347563,0.0952,0.1084,0.2906,0.3628,0.3632,-1.9052,-9.0741,-3.4949,-0.0179,-0.0280,-0.0338
P1F,F,347583,0.0949,0.1100,0.2919,0.3574,0.3642,-1.9855,-9.0861,-3.4578,-0.0230,-0.0061,-0.0354
P1F,F,347603,0.0959,0.1084,0.2824,0.3811,0.4141,-1.9184,-9.1154,-3.4363,-0.0276,0.0020,-0.0374
