person_id,label,timestamp,flex1,flex2,flex3,flex4,flex5,ax,ay,az,gx,gy,gz
P1G,G,534383,0.9900,0.9930,0.9814,0.9934,0.9515,-2.1118,-9.4310,-2.4447,0.0060,-0.0674,-0.0208
P1G,G,534403,0.9875,0.9935,0.9878,0.9780,1.0000,-2.1974,-9.3292,-2.4124,0.0025,-0.0139,-0.0116
P1G,G,534423,0.9926,0.9943,0.9892,0.9974,1.0000,-2.0316,-9.2627,-2.3693,0.0207,0.0095,-0.0091
P1G,G,534443,0.9904,0.9902,0.9928,1.0000,1.0000,-2.0992,-9.3651,-2.4046,0.0434,-0.0309,-0.0197
P1G,G,534463,0.9926,0.9939,0.9846,1.0000,0.9578,-2.1340,-9.4178,-2.4956,0.0341,-0.0302,-0.0129
P1G,G,534483,0.9922,0.9918,0.9754,0.9992,1.0000,-2.1992,-9.3729,-2.5411,-0.0111,-0.0286,-0.0063
P1G,G,534503,0.9911,0.9930,0.9887,0.9875,0.9252,-2.1795,-9.3328,-2.4765,-0.0091,-0.0083,0.0091
P1G,G,534523,0.9904,0.9910,0.9993,0.9897,1.0000,-1.9124,-9.3088,-2.3878,0.0061,-0.0472,-0.0005
P1G,G,534543,0.9911,0.9890,0.9878,1.0000,0.9381,-2.1310,-9.3891,-2.4363,0.0107,-0.0861,-0.0149
P1G,G,534563,0.9918,0.9943,0.9873,0.9839,0.9600,-2.2064,-9.4058,-2.4477,-0.0084,-0.0168,0.0069
P1G,G,534583,0.9918,0.9918,0.9860,0.9813,0.9158,-1.9741,-9.2987,-2.3345,-0.0119,0.0360,0.0180
P1G,G,534603,0.9897,0.9910,0.9956,1.0000,0.9895,-1.7765,-9.3831,-2.2986,0.0087,-0.0237,-0.0057
P1G,G,534623,0.9908,0.9853,0.9905,1.0000,0.9922,-2.1250,-9.3699,-2.3387,0.0257,-0.0858,-0.0376
P1G,G,534643,0.9922,0.9886,0.9873,0.9718,0.9980,-2.1884,-9.4130,-2.3950,0.0254,-0.0376,-0.0168
P1G,G,534663,0.9886,0.9926,0.9873,0.9996,0.9390,-2.0591,-9.3741,-2.3890,0.0256,-0.0115,0.0016
P1G,G,534683,0.9944,0.9881,0.9796,1.0000,0.9127,-2.0064,-9.3508,-2.4160,0.0153,-0.0294,-0.0103
P1G,G,534703,0.9886,0.9935,0.9617,0.9934,0.9457,-2.1376,-9.3603,-2.4555,0.0123,-0.0550,-0.0241
P1G,G,534723,0.9886,0.9902,0.9887,1.0000,0.9430,-2.2070,-9.3406,-2.4411,0.0021,-0.0372,-0.0121
P1G,G,534743,0.9886,0.9910,0.9993,0.9904,0.9109,-2.1729,-9.4005,-2.4507,-0.0059,-0.0249,-0.0025
P1G,G,534763,0.9915,0.9894,0.9768,1.0000,0.9180,-2.0567,-9.3549,-2.3962,-0.0163,-0.0310,0.0027
P1G,G,534783,0.9904,0.9877,0.9887,1.0000,0.9493,-2.1130,-9.3262,-2.3717,0.0052,-0.0506,0.0017
P1G,G,534803,0.9911,0.9906,0.9892,0.9974,0.9310,-2.0849,-9.3190,-2.3591,0.0302,-0.0276,-0.0043
P1G,G,534823,0.9889,0.9894,0.9896,0.9934,0.9162,-2.0388,-9.4298,-2.3681,0.0304,-0.0266,-0.0009
P1G,G,534843,0.9889,0.9918,0.9901,0.9930,0.9515,-2.0549,-9.3765,-2.3992,0.0103,-0.0119,0.0051
P1G,G,534863,0.9900,0.9865,0.9763,1.0000,0.9435,-1.8693,-9.3322,-2.2968,0.0242,-0.0268,-0.0087
P1G,G,534883,0.9904,0.9881,0.9997,0.9897,0.9935,-2.1352,-9.4669,-2.4208,0.0334,-0.1006,-0.0237
P1G,G,534903,0.9886,0.9935,0.9855,0.9791,0.9354,-2.3363,-9.3897,-2.4112,0.0216,-0.0453,-0.0033
P1G,G,534923,0.9875,0.9873,0.9832,1.0000,0.9104,-2.0986,-9.3663,-2.4130,0.0115,0.0135,0.0184
P1G,G,534943,0.9886,0.9918,0.9892,1.0000,0.9060,-1.8873,-9.3358,-2.3974,0.0262,-0.0456,0.0076
P1G,G,534963,0.9904,0.9877,0.9869,0.9945,0.9234,-2.1459,-9.2855,-2.4196,0.0412,-0.0870,-0.0161
P1G,G,534983,0.9889,0.9861,0.9873,1.0000,0.9408,-2.1699,-9.3855,-2.4561,0.0505,-0.0161,0.0073
P1G,G,535003,0.9882,0.9869,0.9878,0.9963,1.0000,-1.9513,-9.3897,-2.4303,0.0394,-0.0016,0.0136
P1G,G,535023,0.9915,0.9881,0.9860,0.9795,1.0000,-1.9573,-9.2741,-2.3998,0.0500,-0.0717,-0.0056
P1G,G,535043,0.9875,0.9873,0.9924,0.9941,0.9135,-2.2555,-9.2472,-2.5034,0.0955,-0.0778,-0.0043
P1G,G,535063,0.9889,0.9853,0.9924,0.9926,0.8939,-2.1417,-9.2334,-2.5142,0.1379,-0.0348,0.0324
P1G,G,551603,0.9437,0.9485,1.0000,0.1502,0.4043,3.9931,-6.4252,5.8708,0.0197,-0.0713,0.0356
P1G,G,551623,0.9524,0.9485,1.0000,0.1422,0.4096,3.9650,-6.5103,5.7906,0.0396,-0.0711,0.0348
P1G,G,551663,0.9429,0.9477,1.0000,0.1554,0.4043,3.9913,-6.6761,5.4990,-0.0119,-0.0626,0.0043
P1G,G,551683,0.9433,0.9481,1.0000,0.1528,0.3824,4.0344,-6.7270,5.5002,0.0064,-0.0662,-0.0007
P1G,G,551703,0.9429,0.9477,1.0000,0.1455,0.4521,3.8943,-6.8300,5.4505,0.0077,-0.0690,-0.0172
P1G,G,551723,0.9411,0.9465,1.0000,0.1609,0.4467,3.8542,-6.8378,5.4181,-0.0481,-0.0008,-0.0558
P1G,G,551743,0.9476,0.9477,1.0000,0.1480,0.4431,3.9739,-6.7288,5.4529,-0.0787,0.0262,-0.0774
P1G,G,551763,0.9393,0.9395,1.0000,0.1634,0.3833,3.9392,-6.6043,5.5325,-0.0593,0.0175,-0.0648
P1G,G,551783,0.9419,0.9469,1.0000,0.1385,0.3958,3.9590,-6.5330,5.7043,-0.0513,-0.0028,-0.0222
P1G,G,551803,0.9437,0.9449,1.0000,0.1601,0.3650,4.0135,-6.4797,5.7816,-0.0542,-0.0051,-0.0057
P1G,G,551823,0.9397,0.9444,1.0000,0.1502,0.3855,4.1416,-6.3899,5.8624,-0.0520,0.0143,-0.0076
P1G,G,551843,0.9419,0.9477,1.0000,0.1565,0.3842,4.2278,-6.3127,5.9355,-0.0197,0.0097,-0.0073
P1G,G,551863,0.9437,0.9465,1.0000,0.1839,0.4360,4.3422,-6.2983,5.9265,0.0215,0.0001,-0.0172
P1G,G,551883,0.9415,0.9449,1.0000,0.1462,0.4016,4.3374,-6.3384,5.8702,0.0405,-0.0372,-0.0228
P1G,G,551903,0.9426,0.9481,1.0000,0.1488,0.4038,4.1913,-6.5055,5.8397,0.0839,-0.0273,-0.0412
P1G,G,551923,0.9433,0.9489,1.0000,0.1590,0.4556,4.1093,-6.6857,5.7451,0.0679,-0.0258,-0.0648
P1G,G,551943,0.9408,0.9506,1.0000,0.1663,0.4847,4.0518,-6.8180,5.6888,0.0445,-0.0274,-0.0598
P1G,G,551963,0.9433,0.9461,1.0000,0.1620,0.3525,3.9410,-6.8719,5.6989,0.0180,-0.0406,-0.0409
P1G,G,551983,0.9433,0.9465,1.0000,0.1506,0.4061,3.9009,-6.8102,5.6822,0.0103,-0.0550,-0.0246
P1G,G,552003,0.9444,0.9477,1.0000,0.1594,0.3721,3.8524,-6.8078,5.6714,0.0060,-0.0465,-0.0135
P1G,G,552023,0.9444,0.9485,1.0000,0.1594,0.4011,3.9620,-6.7342,5.6888,-0.0228,-0.0460,-0.0005
P1G,G,552043,0.9404,0.9444,1.0000,0.1693,0.4726,3.9811,-6.5624,5.8055,-0.0456,-0.0749,0.0246
P1G,G,552063,0.9415,0.9383,1.0000,0.1678,0.4539,4.0673,-6.4570,5.8570,-0.0262,-0.0469,0.0228
P1G,G,552083,0.9390,0.9481,1.0000,0.1722,0.3940,4.1512,-6.4043,5.8977,-0.0116,-0.0493,0.0193
P1G,G,552103,0.9404,0.9477,1.0000,0.1660,0.4047,4.1512,-6.3803,5.9528,0.0051,-0.0546,0.0024
P1G,G,552123,0.9422,0.9465,1.0000,0.1620,0.4914,4.0967,-6.3755,5.8738,0.0125,-0.0570,-0.0265
P1G,G,552143,0.9419,0.9493,1.0000,0.1781,0.4534,3.9907,-6.4504,5.7900,0.0241,-0.0593,-0.0394
P1G,G,552163,0.9447,0.9485,1.0000,0.1557,0.4342,3.9033,-6.5905,5.7193,0.0173,-0.0534,-0.0486
P1G,G,552183,0.9422,0.9477,1.0000,0.1645,0.4458,3.8680,-6.6085,5.7115,-0.0080,-0.0353,-0.0474
P1G,G,552203,0.9498,0.9453,1.0000,0.1612,0.4847,3.8650,-6.5624,5.7540,0.0107,-0.0360,-0.0141
P1G,G,552223,0.9429,0.9477,1.0000,0.1590,0.4570,3.7644,-6.6126,5.7696,0.0378,-0.0508,0.0127
P1G,G,552243,0.9408,0.9469,1.0000,0.1737,0.4481,3.8386,-6.6360,5.7642,0.0234,-0.0306,0.0203
P1G,G,552263,0.9404,0.9473,1.0000,0.1744,0.4619,3.9668,-6.5647,5.7744,0.0140,-0.0253,0.0200
P1G,G,552283,0.9393,0.9481,1.0000,0.1652,0.4762,4.0368,-6.5887,5.7654,0.0312,-0.0250,0.0292
P1G,G,552303,0.9415,0.9473,1.0000,0.1598,0.3721,4.0087,-6.5695,5.6600,0.0378,-0.0228,0.0207
P1G,G,552323,0.9415,0.9477,1.0000,0.1689,0.3936,4.1566,-6.5935,5.6277,0.0380,-0.0031,0.0037
P1G,G,552343,0.9422,0.9481,1.0000,0.1506,0.4597,4.2506,-6.6354,5.6055,0.0113,-0.0095,-0.0107
P1G,G,552363,0.9400,0.9457,1.0000,0.1784,0.3672,4.1368,-6.5845,5.6552,-0.0128,-0.0201,-0.0212
P1G,G,552383,0.9411,0.9461,1.0000,0.1557,0.4574,4.1099,-6.5803,5.7468,-0.0076,-0.0257,-0.0188
P1G,G,552403,0.9400,0.9481,1.0000,0.1576,0.4900,4.0512,-6.6300,5.8127,-0.0005,-0.0365,-0.0248
P1G,G,552423,0.9404,0.9485,1.0000,0.1744,0.4659,3.9608,-6.5821,5.8678,0.0017,-0.0392,-0.0188
P1G,G,552443,0.9415,0.9493,1.0000,0.1671,0.3525,3.9662,-6.6378,5.8421,0.0172,-0.0506,-0.0105
P1G,G,552463,0.9408,0.9477,1.0000,0.1521,0.3953,3.9398,-6.6186,5.8121,0.0125,-0.0528,-0.0039
P1G,G,552483,0.9415,0.9473,1.0000,0.1707,0.4262,3.9602,-6.6294,5.7864,-0.0003,-0.0400,-0.0032
P1G,G,552503,0.9415,0.9453,1.0000,0.1748,0.4159,3.9865,-6.6342,5.8079,0.0262,-0.0284,0.0017
P1G,G,552523,0.9404,0.9461,1.0000,0.1590,0.4816,4.0314,-6.5965,5.7127,0.0240,-0.0264,0.0056
P1G,G,552543,0.9400,0.9465,1.0000,0.1623,0.3967,4.0991,-6.6390,5.6768,0.0043,-0.0482,0.0079
P1G,G,552563,0.9404,0.9473,1.0000,0.1477,0.3958,4.0194,-6.6438,5.6995,0.0055,-0.0444,0.0060
P1G,G,552583,0.9408,0.9436,1.0000,0.1488,0.3645,4.0721,-6.6462,5.6852,0.0165,0.0028,-0.0107
P1G,G,552603,0.9419,0.9473,1.0000,0.1693,0.4472,4.1470,-6.6617,5.6858,-0.0080,-0.0117,-0.0173
P1G,G,552623,0.9397,0.9457,1.0000,0.1466,0.3967,4.0147,-6.6180,5.6564,-0.0135,-0.0280,-0.0145
P1G,G,552643,0.9415,0.9465,1.0000,0.1499,0.4856,4.0895,-6.5713,5.6750,-0.0159,-0.0264,-0.0192
P1G,G,552663,0.9415,0.9461,1.0000,0.1451,0.4771,4.0560,-6.5474,5.6882,-0.0157,-0.0218,-0.0169
P1G,G,552683,0.9408,0.9502,1.0000,0.1685,0.4646,4.0554,-6.5258,5.7199,-0.0091,-0.0254,-0.0216
P1G,G,552703,0.9400,0.9461,1.0000,0.1513,0.4534,4.0949,-6.5336,5.7780,-0.0167,-0.0290,-0.0201
P1G,G,552723,0.9382,0.9542,1.0000,0.1737,0.4641,4.1027,-6.5743,5.8373,-0.0065,-0.0534,-0.0141
P1G,G,552743,0.9390,0.9453,1.0000,0.1510,0.3717,4.0260,-6.5779,5.8007,0.0024,-0.0536,-0.0133
P1G,G,552763,0.9404,0.9461,1.0000,0.1685,0.4463,4.1009,-6.5881,5.8283,-0.0025,-0.0392,-0.0123
P1G,G,552783,0.9426,0.9461,1.0000,0.1572,0.3842,4.1482,-6.5863,5.8091,0.0015,-0.0502,-0.0043
P1G,G,552803,0.9386,0.9481,1.0000,0.1557,0.3806,4.0003,-6.5444,5.8109,0.0096,-0.0791,-0.0053
P1G,G,552823,0.9386,0.9461,1.0000,0.1524,0.4440,3.9638,-6.5911,5.7918,0.0131,-0.0556,-0.0207
P1G,G,552843,0.9408,0.9400,1.0000,0.1660,0.3985,4.0206,-6.5953,5.8061,0.0089,-0.0353,-0.0193
P1G,G,552863,0.9400,0.9493,1.0000,0.1587,0.3904,4.0266,-6.6905,5.7654,0.0072,-0.0630,-0.0089
P1G,G,552883,0.9411,0.9428,1.0000,0.1469,0.3909,3.9925,-6.6929,5.7187,-0.0109,-0.0608,-0.0096
P1G,G,552903,0.9393,0.9457,1.0000,0.1623,0.3922,4.0673,-6.6132,5.7834,-0.0160,-0.0422,-0.0163
P1G,G,552923,0.9415,0.9469,1.0000,0.1561,0.3994,4.0494,-6.5941,5.7672,-0.0195,-0.0801,-0.0004
P1G,G,552943,0.9390,0.9457,1.0000,0.1605,0.3855,3.9715,-6.5923,5.8474,-0.0167,-0.0637,-0.0107
P1G,G,552963,0.9382,0.9440,1.0000,0.1528,0.3998,3.9697,-6.5378,5.8726,-0.0080,-0.0510,-0.0230
P1G,G,552983,0.9429,0.9461,1.0000,0.1598,0.3936,3.8494,-6.5534,5.8648,0.0012,-0.0352,-0.0228
P1G,G,553003,0.9375,0.9440,1.0000,0.1532,0.3806,3.9596,-6.5827,5.8283,0.0157,-0.0385,-0.0123
P1G,G,553023,0.9371,0.9469,1.0000,0.1806,0.4074,3.8584,-6.5803,5.7271,0.0165,-0.0589,0.0021
P1G,G,553043,0.9408,0.9465,1.0000,0.1623,0.3730,3.8961,-6.5576,5.7546,0.0047,-0.0410,0.0001
P1G,G,553063,0.9393,0.9440,1.0000,0.1579,0.4534,3.9727,-6.5414,5.7510,0.0193,-0.0230,-0.0020
P1G,G,553083,0.9371,0.9481,1.0000,0.1674,0.4449,3.9769,-6.5809,5.7666,0.0169,-0.0249,-0.0076
P1G,G,553103,0.9382,0.9477,1.0000,0.1733,0.4257,4.0158,-6.5372,5.8462,0.0080,-0.0268,-0.0004
P1G,G,553123,0.9408,0.9444,1.0000,0.1517,0.4588,3.9883,-6.5438,5.8900,0.0220,-0.0224,-0.0015
P1G,G,553143,0.9382,0.9457,1.0000,0.1857,0.4436,3.9913,-6.5486,5.8025,0.0262,-0.0171,-0.0084
P1G,G,553163,0.9447,0.9534,1.0000,0.1623,0.4494,4.0590,-6.5641,5.7876,0.0196,-0.0390,-0.0059
P1G,G,553183,0.9386,0.9465,1.0000,0.1715,0.4333,4.0003,-6.6336,5.7870,0.0274,-0.0493,-0.0027
P1G,G,553203,0.9390,0.9493,1.0000,0.1777,0.4396,3.9638,-6.6492,5.6995,0.0069,-0.0432,-0.0013
P1G,G,553223,0.9404,0.9465,1.0000,0.1762,0.4396,4.0087,-6.6180,5.7421,-0.0044,-0.0381,-0.0080
P1G,G,553243,0.9368,0.9473,1.0000,0.1660,0.3770,4.0009,-6.6103,5.7433,0.0004,-0.0256,-0.0052
P1G,G,553263,0.9397,0.9453,1.0000,0.1645,0.4338,3.9877,-6.6168,5.8139,-0.0013,-0.0309,0.0016
P1G,G,553283,0.9386,0.9436,1.0000,0.1535,0.3868,3.9536,-6.5552,5.8678,0.0003,-0.0226,0.0017
P1G,G,553303,0.9390,0.9457,1.0000,0.1627,0.4548,4.0410,-6.5162,5.8678,0.0148,-0.0362,0.0147
P1G,G,553323,0.9382,0.9457,1.0000,0.1616,0.3900,3.9745,-6.4899,5.7397,0.0073,-0.0466,0.0163
P1G,G,553343,0.9317,0.9461,1.0000,0.1788,0.4454,3.9841,-6.5121,5.7558,0.0075,-0.0185,-0.0015
P1G,G,553363,0.9400,0.9453,1.0000,0.1927,0.4534,4.0452,-6.5037,5.7965,0.0113,-0.0145,0.0012
P1G,G,553383,0.9382,0.9444,1.0000,0.1737,0.4664,4.0129,-6.5408,5.7810,0.0077,-0.0416,0.0123
P1G,G,553403,0.9382,0.9502,1.0000,0.1649,0.3609,3.9979,-6.5749,5.8355,0.0212,-0.0237,0.0009
P1G,G,553423,0.9397,0.9444,1.0000,0.1590,0.4288,4.0242,-6.6061,5.7858,0.0132,-0.0129,-0.0028
P1G,G,553443,0.9368,0.9449,1.0000,0.1396,0.4070,4.1039,-6.6198,5.7594,0.0203,-0.0245,0.0087
P1G,G,553463,0.9393,0.9469,1.0000,0.1557,0.4431,4.0009,-6.6725,5.7205,0.0037,-0.0466,0.0136
P1G,G,553483,0.9397,0.9440,1.0000,0.1678,0.3761,4.0620,-6.5833,5.7666,-0.0149,-0.0284,-0.0011
P1G,G,553503,0.9382,0.9449,1.0000,0.1678,0.3801,4.1362,-6.5216,5.8642,0.0032,-0.0370,0.0028
P1G,G,553523,0.9375,0.9457,1.0000,0.1561,0.3681,4.0141,-6.5462,5.8768,0.0097,-0.0585,0.0051
P1G,G,553543,0.9400,0.9457,1.0000,0.1616,0.3784,3.9512,-6.5935,5.8307,-0.0071,-0.0317,-0.0105
P1G,G,553563,0.9368,0.9432,1.0000,0.1685,0.4454,4.0661,-6.5216,5.8043,-0.0136,-0.0261,-0.0129
P1G,G,553583,0.9375,0.9461,1.0000,0.1704,0.4476,4.0338,-6.5127,5.7570,0.0135,-0.0456,-0.0067
P1G,G,553603,0.9382,0.9444,1.0000,0.1817,0.4945,3.9697,-6.5630,5.7295,0.0258,-0.0346,-0.0056
P1G,G,553623,0.9408,0.9453,1.0000,0.1715,0.4588,4.0164,-6.5671,5.7684,0.0171,-0.0237,-0.0145
P1G,G,553643,0.9382,0.9477,1.0000,0.1590,0.4784,3.9811,-6.5342,5.8546,0.0205,-0.0420,0.0055
P1G,G,553663,0.9404,0.9473,1.0000,0.1612,0.4619,3.9626,-6.5977,5.7983,0.0276,-0.0496,0.0087
P1G,G,553683,0.9346,0.9449,0.9979,0.1554,0.3752,3.9913,-6.5564,5.7474,0.0008,-0.0292,0.0067
P1G,G,553703,0.9386,0.9428,1.0000,0.1729,0.4512,4.0548,-6.5803,5.7133,-0.0056,-0.0222,0.0097
P1G,G,553723,0.9361,0.9440,0.9997,0.1554,0.3730,4.1128,-6.5588,5.7714,-0.0044,-0.0336,0.0123
P1G,G,553743,0.9382,0.9444,1.0000,0.1590,0.4110,4.0793,-6.5624,5.7738,-0.0085,-0.0496,0.0181
P1G,G,553763,0.9339,0.9449,1.0000,0.1722,0.4677,4.1075,-6.5133,5.8025,0.0000,-0.0393,0.0028
P1G,G,553783,0.9353,0.9412,1.0000,0.1762,0.3350,4.0895,-6.5055,5.7936,-0.0060,-0.0337,-0.0071
P1G,G,553803,0.9346,0.9502,1.0000,0.1638,0.4722,4.0392,-6.5564,5.8421,0.0019,-0.0293,-0.0072
P1G,G,553823,0.9368,0.9440,1.0000,0.1693,0.3690,4.1021,-6.5402,5.8852,0.0083,-0.0284,-0.0035
P1G,G,553843,0.9353,0.9444,1.0000,0.1740,0.3690,4.0787,-6.5366,5.8415,0.0013,-0.0481,-0.0072
P1G,G,553863,0.9361,0.9424,1.0000,0.1579,0.4007,3.9751,-6.5061,5.8037,-0.0056,-0.0418,-0.0111
P1G,G,553883,0.9368,0.9395,1.0000,0.1426,0.4020,4.0637,-6.4863,5.7900,0.0113,-0.0342,-0.0139
P1G,G,553903,0.9411,0.9420,1.0000,0.1609,0.4083,4.0446,-6.5234,5.7642,0.0301,-0.0408,-0.0144
P1G,G,553923,0.9342,0.9428,1.0000,0.1667,0.3967,4.0554,-6.5779,5.7642,0.0196,-0.0341,-0.0165
P1G,G,553943,0.9332,0.9436,1.0000,0.1649,0.3462,4.0590,-6.5875,5.8373,-0.0080,-0.0544,-0.0043
P1G,G,553963,0.9350,0.9432,1.0000,0.1645,0.4007,4.0703,-6.5444,5.8421,-0.0019,-0.0528,0.0056
P1G,G,553983,0.9346,0.9449,1.0000,0.1488,0.4391,4.0164,-6.6168,5.8169,-0.0027,-0.0388,0.0021
P1G,G,554003,0.9368,0.9391,1.0000,0.1751,0.3444,4.0967,-6.5887,5.7786,-0.0129,-0.0246,-0.0124
P1G,G,554023,0.9353,0.9449,1.0000,0.1579,0.4011,3.9542,-6.5204,5.7852,-0.0348,-0.0349,-0.0164
P1G,G,554043,0.9364,0.9444,1.0000,0.1641,0.3605,4.0129,-6.5210,5.8049,-0.0264,-0.0052,-0.0393
P1G,G,554063,0.9353,0.9436,1.0000,0.1524,0.3989,4.0212,-6.4941,5.8403,-0.0328,0.0067,-0.0481
P1G,G,554083,0.9353,0.9416,1.0000,0.1601,0.3672,4.0835,-6.4785,5.8906,-0.0007,0.0052,-0.0400
P1G,G,554103,0.9364,0.9465,1.0000,0.1605,0.3998,3.9512,-6.5174,5.7936,0.0124,-0.0316,-0.0181
P1G,G,554123,0.9375,0.9444,1.0000,0.1568,0.3596,3.9117,-6.5174,5.7726,0.0298,-0.0256,-0.0128
P1G,G,554143,0.9361,0.9436,1.0000,0.1766,0.3962,3.9093,-6.5318,5.7355,0.0250,-0.0220,-0.0099
P1G,G,554163,0.9346,0.9444,1.0000,0.1656,0.3511,3.9883,-6.5839,5.6966,0.0128,-0.0081,-0.0073
P1G,G,554183,0.9353,0.9428,1.0000,0.1649,0.3627,4.0859,-6.5246,5.7097,-0.0217,0.0027,-0.0039
P1G,G,554203,0.9368,0.9473,1.0000,0.1656,0.3851,4.1266,-6.4953,5.8115,-0.0047,-0.0119,0.0068
P1G,G,554223,0.9386,0.9453,1.0000,0.1638,0.3663,4.0913,-6.4630,5.8666,0.0256,-0.0449,0.0199
P1G,G,554243,0.9361,0.9440,1.0000,0.1612,0.3641,4.0775,-6.4929,5.9109,0.0345,-0.0224,0.0127
P1G,G,554263,0.9346,0.9387,1.0000,0.1590,0.4056,4.1320,-6.4971,5.8911,0.0325,-0.0278,0.0020
P1G,G,554283,0.9353,0.9444,1.0000,0.1652,0.3712,4.0823,-6.5594,5.7678,0.0446,-0.0334,-0.0055
P1G,G,554303,0.9375,0.9408,1.0000,0.1649,0.3775,4.0434,-6.6138,5.7379,0.0393,-0.0278,-0.0139
P1G,G,554323,0.9375,0.9444,1.0000,0.1810,0.3556,3.9883,-6.6270,5.6720,0.0230,-0.0169,-0.0044
P1G,G,554343,0.9400,0.9453,1.0000,0.1755,0.4521,4.0368,-6.6342,5.6894,0.0245,-0.0164,-0.0005
P1G,G,554363,0.9361,0.9461,1.0000,0.1898,0.4467,4.0051,-6.6288,5.6822,-0.0052,-0.0398,0.0197
P1G,G,554383,0.9361,0.9461,1.0000,0.1861,0.4333,4.0302,-6.5641,5.7564,-0.0012,-0.0167,0.0159
P1G,G,554403,0.9353,0.9416,1.0000,0.1868,0.4454,4.1799,-6.5270,5.8013,-0.0013,-0.0286,0.0081
P1G,G,554423,0.9339,0.9379,1.0000,0.1824,0.4333,4.1164,-6.4504,5.8744,-0.0153,-0.0405,0.0316
P1G,G,554443,0.9346,0.9457,1.0000,0.1795,0.3828,4.2110,-6.4402,5.9385,0.0101,-0.0012,0.0017
P1G,G,554463,0.9350,0.9440,0.9965,0.1726,0.4011,4.1464,-6.3731,5.8289,0.0129,-0.0341,-0.0015
P1G,G,554483,0.9364,0.9461,1.0000,0.1803,0.4548,4.1146,-6.4336,5.7822,0.0484,-0.0382,0.0009
P1G,G,554503,0.9346,0.9457,1.0000,0.1781,0.4056,4.1464,-6.5462,5.7696,0.0452,-0.0368,-0.0048
P1G,G,554523,0.9357,0.9465,1.0000,0.1777,0.4811,4.0961,-6.5264,5.7313,0.0346,-0.0345,-0.0048
P1G,G,554543,0.9361,0.9432,1.0000,0.1784,0.4811,4.1134,-6.5270,5.6846,0.0397,-0.0365,-0.0052
P1G,G,554563,0.9382,0.9449,1.0000,0.1788,0.3748,4.1170,-6.5240,5.6995,0.0229,-0.0470,-0.0063
P1G,G,554583,0.9332,0.9432,1.0000,0.1751,0.4445,4.0637,-6.5917,5.6995,0.0132,-0.0400,-0.0203
P1G,G,554603,0.9361,0.9444,1.0000,0.1781,0.4489,4.0362,-6.5414,5.7864,0.0133,-0.0432,-0.0119
P1G,G,554623,0.9364,0.9428,1.0000,0.1799,0.4543,4.0338,-6.5174,5.8576,0.0260,-0.0412,-0.0037
P1G,G,554643,0.9364,0.9453,1.0000,0.1850,0.4757,3.8829,-6.5109,5.8774,0.0285,-0.0258,-0.0132
P1G,G,554663,0.9426,0.9449,1.0000,0.1803,0.4668,3.9099,-6.4785,5.7468,0.0413,0.0084,-0.0163
P1G,G,554683,0.9353,0.9444,0.9974,0.1781,0.3659,3.9991,-6.4695,5.5858,0.0325,0.0117,-0.0041
P1G,G,554703,0.9353,0.9428,1.0000,0.1605,0.4481,4.0530,-6.4678,5.6002,0.0108,0.0055,0.0067
P1G,G,554723,0.9332,0.9436,1.0000,0.1813,0.4114,4.1548,-6.4821,5.6852,-0.0011,-0.0047,0.0203
P1G,G,554743,0.9353,0.9473,1.0000,0.1773,0.4440,4.2931,-6.4474,5.8253,-0.0004,-0.0141,0.0468
P1G,G,554763,0.9321,0.9461,1.0000,0.1656,0.4087,4.1590,-6.5432,6.0103,0.0140,-0.0360,0.0521
P1G,G,554783,0.9346,0.9449,1.0000,0.1722,0.3386,4.2865,-6.4917,6.0714,0.0517,-0.0185,0.0346
P1G,G,554803,0.9368,0.9416,1.0000,0.1792,0.4856,4.3458,-6.5809,6.0642,0.0961,-0.0484,0.0297
P1G,G,554823,0.9303,0.9449,1.0000,0.1609,0.4105,4.3344,-6.6192,5.8456,0.1098,-0.0528,0.0165
P1G,G,554843,0.9350,0.9444,0.9970,0.1652,0.3851,4.3925,-6.7186,5.6439,0.0885,-0.0597,0.0148
P1G,G,554863,0.9368,0.9457,1.0000,0.1612,0.4722,4.3308,-6.7540,5.4804,0.0473,-0.0855,0.0121
P1G,G,554883,0.9368,0.9449,1.0000,0.1762,0.5026,4.2440,-6.7126,5.5648,-0.0083,-0.0754,0.0057
P1G,G,554903,0.9375,0.9444,1.0000,0.1832,0.4128,4.1548,-6.6156,5.6822,-0.0137,-0.0638,0.0176
P1G,G,554923,0.9332,0.9420,1.0000,0.1846,0.4650,4.0643,-6.5971,5.7139,-0.0045,-0.0854,0.0296
P1G,G,554943,0.9357,0.9408,1.0000,0.1634,0.4847,4.0272,-6.5210,5.7271,-0.0143,-0.0851,0.0258
P1G,G,554963,0.9353,0.9457,1.0000,0.1660,0.4373,4.0733,-6.5085,5.7229,-0.0092,-0.0652,0.0156
P1G,G,554983,0.9346,0.9453,1.0000,0.1671,0.4405,4.0632,-6.4881,5.7031,-0.0045,-0.0608,0.0137
P1G,G,555003,0.9361,0.9428,1.0000,0.1799,0.3998,4.0793,-6.4827,5.6846,-0.0008,-0.0687,0.0095
P1G,G,555023,0.9346,0.9449,1.0000,0.1660,0.4172,3.9769,-6.4576,5.6852,0.0140,-0.0528,0.0025
P1G,G,555043,0.9361,0.9436,1.0000,0.1759,0.4489,3.9434,-6.5360,5.6612,0.0199,-0.0184,-0.0097
P1G,G,555063,0.9375,0.9440,1.0000,0.1788,0.4396,4.0470,-6.6156,5.5948,0.0131,-0.0024,-0.0224
P1G,G,555083,0.9382,0.9424,1.0000,0.1649,0.4150,4.1811,-6.5677,5.6624,0.0059,-0.0151,-0.0092
P1G,G,555103,0.9364,0.9420,1.0000,0.1638,0.3498,4.1146,-6.5426,5.7067,0.0008,-0.0241,-0.0023
P1G,G,555123,0.9346,0.9440,0.9951,0.1748,0.4615,4.1877,-6.5091,5.7289,0.0091,-0.0056,-0.0023
P1G,G,555143,0.9342,0.9432,1.0000,0.1587,0.3958,4.3128,-6.4899,5.7019,0.0059,-0.0171,-0.0019
P1G,G,555163,0.9346,0.9477,1.0000,0.1609,0.3886,4.2895,-6.4749,5.7636,-0.0004,-0.0357,-0.0069
P1G,G,555183,0.9357,0.9440,1.0000,0.1773,0.3784,4.3056,-6.4528,5.8193,0.0061,-0.0313,-0.0137
P1G,G,555203,0.9339,0.9420,1.0000,0.1612,0.3909,4.3607,-6.4234,5.8516,0.0388,-0.0342,-0.0205
P1G,G,555223,0.9339,0.9416,1.0000,0.1656,0.3860,4.3194,-6.4995,5.8049,0.0400,-0.0650,-0.0270
P1G,G,555243,0.9411,0.9424,1.0000,0.1641,0.4802,4.2601,-6.5863,5.7995,0.0725,-0.0797,-0.0264
P1G,G,555263,0.9324,0.9436,1.0000,0.1645,0.3730,4.1943,-6.6402,5.6882,0.0617,-0.0787,-0.0229
P1G,G,555283,0.9350,0.9436,1.0000,0.1854,0.4507,4.2380,-6.7366,5.6816,0.0640,-0.0657,-0.0360
P1G,G,555303,0.9361,0.9444,1.0000,0.1656,0.4722,4.1667,-6.7851,5.5708,0.0474,-0.0831,-0.0261
P1G,G,555323,0.9368,0.9449,1.0000,0.1685,0.4623,4.1536,-6.8312,5.5523,0.0392,-0.0827,-0.0248
P1G,G,555343,0.9350,0.9465,1.0000,0.1744,0.3730,4.1033,-6.8168,5.5552,0.0020,-0.0754,-0.0261
P1G,G,555363,0.9339,0.9453,1.0000,0.1729,0.3819,4.1236,-6.6863,5.6283,-0.0384,-0.0822,-0.0191
P1G,G,555383,0.9332,0.9449,1.0000,0.1850,0.4123,4.0374,-6.6444,5.7139,-0.0498,-0.0847,-0.0056
P1G,G,555403,0.9277,0.9449,1.0000,0.1748,0.3712,4.0206,-6.6001,5.7289,-0.0462,-0.0679,-0.0017
P1G,G,555423,0.9335,0.9444,0.9896,0.1942,0.4735,4.0176,-6.5707,5.7558,-0.0421,-0.0734,0.0000
P1G,G,555443,0.9353,0.9408,1.0000,0.1660,0.3797,4.0009,-6.5426,5.7678,-0.0456,-0.0950,0.0003
P1G,G,555463,0.9342,0.9420,1.0000,0.1576,0.3980,3.9099,-6.5330,5.7672,-0.0532,-0.0895,-0.0096
P1G,G,555483,0.9350,0.9453,1.0000,0.1671,0.3971,3.9440,-6.5031,5.7900,-0.0429,-0.0604,-0.0200
P1G,G,555503,0.9339,0.9420,1.0000,0.1638,0.3828,3.9506,-6.4707,5.7989,-0.0328,-0.0468,-0.0229
P1G,G,555523,0.9317,0.9432,1.0000,0.1813,0.4391,3.8895,-6.4438,5.7959,-0.0171,-0.0524,-0.0300
P1G,G,555543,0.9368,0.9489,1.0000,0.1583,0.4114,3.8470,-6.4935,5.7840,-0.0029,-0.0496,-0.0366
P1G,G,555563,0.9339,0.9416,1.0000,0.1773,0.4025,3.7506,-6.5210,5.7918,0.0100,-0.0313,-0.0365
P1G,G,555583,0.9332,0.9444,1.0000,0.1755,0.4132,3.8530,-6.6013,5.7349,0.0382,-0.0093,-0.0314
P1G,G,555603,0.9361,0.9428,1.0000,0.1557,0.3596,3.7823,-6.6851,5.5948,0.0093,0.0000,-0.0188
P1G,G,555623,0.9364,0.9453,1.0000,0.1678,0.3779,3.9925,-6.6809,5.6612,-0.0032,0.0390,-0.0128
P1G,G,555643,0.9379,0.9485,1.0000,0.1645,0.3627,4.0901,-6.6109,5.6942,0.0009,0.0188,0.0097
P1G,G,555663,0.9342,0.9412,1.0000,0.1850,0.3958,4.1643,-6.5947,5.7103,-0.0029,-0.0141,0.0249
P1G,G,555683,0.9353,0.9440,1.0000,0.1894,0.4498,4.2182,-6.5749,5.7720,-0.0123,-0.0136,0.0187
P1G,G,555703,0.9346,0.9440,1.0000,0.1898,0.4003,4.2853,-6.5085,5.8816,-0.0248,-0.0177,0.0089
P1G,G,555723,0.9346,0.9440,1.0000,0.1810,0.4288,4.2116,-6.4408,5.9774,-0.0286,-0.0211,0.0012
P1G,G,555743,0.9353,0.9453,1.0000,0.1835,0.4297,4.1889,-6.4037,5.9642,-0.0033,-0.0244,-0.0051
P1G,G,555763,0.9357,0.9453,1.0000,0.1755,0.3989,4.0877,-6.5210,5.9199,0.0159,-0.0404,-0.0103
P1G,G,555783,0.9335,0.9428,1.0000,0.1740,0.4668,4.0410,-6.5348,5.8534,0.0233,-0.0270,-0.0185
P1G,G,555803,0.9332,0.9432,1.0000,0.1711,0.3569,4.0039,-6.6192,5.7271,0.0354,-0.0264,-0.0172
P1G,G,555823,0.9458,0.9440,1.0000,0.1766,0.4418,4.0380,-6.6121,5.6499,0.0149,-0.0334,-0.0099
P1G,G,555843,0.9324,0.9436,1.0000,0.1894,0.4467,4.0362,-6.6121,5.6750,-0.0028,-0.0236,-0.0115
P1G,G,555863,0.9350,0.9428,0.9988,0.1707,0.4128,4.0763,-6.5438,5.6936,-0.0216,-0.0332,-0.0021
P1G,G,555883,0.9350,0.9440,1.0000,0.1663,0.4789,4.0721,-6.4935,5.7486,-0.0305,-0.0289,-0.0039
P1G,G,555903,0.9364,0.9440,1.0000,0.1711,0.4690,4.0991,-6.4612,5.8486,-0.0356,-0.0282,-0.0051
P1G,G,555923,0.9339,0.9424,1.0000,0.1861,0.4637,4.0182,-6.4103,5.8906,-0.0115,-0.0229,-0.0021
P1G,G,555943,0.9346,0.9522,1.0000,0.1766,0.4458,4.0117,-6.4133,5.9564,-0.0013,-0.0029,-0.0011
P1G,G,555963,0.9335,0.9530,1.0000,0.1521,0.3962,4.1093,-6.4306,5.9235,0.0125,0.0031,-0.0048
P1G,G,555983,0.9357,0.9436,1.0000,0.1663,0.4682,4.1679,-6.3821,5.8367,0.0342,-0.0314,0.0127
P1G,G,556003,0.9353,0.9481,1.0000,0.1696,0.4382,4.1775,-6.4510,5.7546,0.0522,-0.0274,0.0100
P1G,G,556023,0.9353,0.9428,1.0000,0.1667,0.4418,4.2488,-6.5043,5.6570,0.0357,-0.0208,0.0015
P1G,G,556043,0.9342,0.9449,1.0000,0.1641,0.3828,4.2835,-6.5426,5.6762,0.0180,-0.0250,0.0000
P1G,G,556063,0.9335,0.9469,0.9997,0.1623,0.3828,4.2913,-6.5085,5.7079,0.0100,-0.0410,-0.0080
P1G,G,556083,0.9328,0.9424,1.0000,0.1696,0.4306,4.2338,-6.5336,5.7558,0.0000,-0.0596,-0.0068
P1G,G,556103,0.9350,0.9469,1.0000,0.1663,0.4405,4.1380,-6.5025,5.8337,0.0080,-0.0636,-0.0080
P1G,G,556123,0.9321,0.9440,1.0000,0.1649,0.4498,4.1158,-6.4791,5.8636,0.0164,-0.0621,-0.0101
P1G,G,556143,0.9371,0.9424,1.0000,0.1634,0.4373,4.0889,-6.5001,5.8283,0.0225,-0.0532,-0.0145
P1G,G,556163,0.9342,0.9457,1.0000,0.1612,0.4168,4.0937,-6.5498,5.8295,0.0342,-0.0429,-0.0123
P1G,G,556183,0.9346,0.9440,1.0000,0.1660,0.4525,4.0949,-6.5827,5.7169,0.0394,-0.0490,-0.0035
P1G,G,556203,0.9353,0.9436,1.0000,0.1700,0.4422,4.1116,-6.5731,5.7169,0.0414,-0.0576,-0.0048
P1G,G,556223,0.9335,0.9436,1.0000,0.1480,0.5110,4.0476,-6.5797,5.6421,0.0211,-0.0682,-0.0015
P1G,G,556243,0.9342,0.9440,1.0000,0.1484,0.4016,3.9805,-6.6300,5.7037,0.0189,-0.0485,-0.0033
P1G,G,556263,0.9357,0.9400,1.0000,0.1693,0.3632,4.0230,-6.6037,5.7163,0.0003,-0.0386,-0.0144
P1G,G,556283,0.9361,0.9432,1.0000,0.1678,0.3453,4.0009,-6.5624,5.7445,-0.0009,-0.0462,-0.0091
P1G,G,556303,0.9350,0.9477,1.0000,0.1656,0.4056,3.9638,-6.5612,5.7858,0.0025,-0.0526,-0.0013
P1G,G,556323,0.9350,0.9424,1.0000,0.1700,0.3909,3.9889,-6.5264,5.8085,-0.0028,-0.0318,-0.0060
P1G,G,556343,0.9342,0.9453,1.0000,0.1671,0.4087,4.0596,-6.4582,5.8037,0.0091,-0.0232,-0.0057
P1G,G,556363,0.9371,0.9285,1.0000,0.1806,0.3779,4.0673,-6.5139,5.8397,0.0173,-0.0326,-0.0024
P1G,G,556383,0.9357,0.9432,1.0000,0.1583,0.3752,4.0314,-6.5330,5.8486,0.0195,-0.0302,0.0000
P1G,G,556403,0.9350,0.9453,1.0000,0.1649,0.4074,4.1087,-6.4971,5.8091,0.0296,-0.0274,-0.0008
P1G,G,556423,0.9353,0.9436,0.9910,0.1854,0.4503,4.1194,-6.5641,5.7498,0.0246,-0.0376,-0.0028
P1G,G,556443,0.9357,0.9436,1.0000,0.1788,0.3663,4.1284,-6.5665,5.7355,0.0156,-0.0384,-0.0036
P1G,G,556463,0.9328,0.9449,1.0000,0.1634,0.3645,4.1206,-6.5522,5.7696,0.0127,-0.0350,0.0017
P1G,G,556483,0.9274,0.9432,1.0000,0.1792,0.3766,4.0560,-6.5959,5.7163,0.0048,-0.0253,-0.0065
P1G,G,556503,0.9324,0.9444,1.0000,0.1568,0.3743,4.0811,-6.5402,5.7325,-0.0101,-0.0246,-0.0092
P1G,G,556523,0.9350,0.9420,1.0000,0.1773,0.3944,4.0637,-6.4989,5.7055,0.0003,-0.0356,-0.0013
