person_id,label,timestamp,flex1,flex2,flex3,flex4,flex5,ax,ay,az,gx,gy,gz
P1J,J,107363,0.9921,0.9874,0.9784,1.0000,1.0000,-2.4483,-8.8185,-3.6159,0.0121,-0.0533,-0.0105
P1J,J,107383,0.9946,0.9850,0.9940,0.9886,0.9648,-2.5423,-8.9448,-3.6554,0.0254,-0.0286,-0.0008
P1J,J,107403,0.9914,0.9838,0.9955,1.0000,0.9731,-2.4657,-8.9670,-3.6799,0.0185,-0.0052,0.0059
P1J,J,107423,0.9907,0.9930,0.9898,1.0000,0.8869,-2.3190,-8.9232,-3.7296,0.0123,-0.0073,0.0032
P1J,J,107443,0.9914,0.9858,0.9943,0.9859,1.0000,-2.4034,-8.8891,-3.6913,0.0049,-0.0390,0.0009
P1J,J,107463,0.9921,0.9886,0.9940,0.9856,0.9486,-2.4034,-8.8227,-3.7207,0.0175,-0.0310,0.0007
P1J,J,107483,0.9914,0.9827,1.0000,0.9701,0.9589,-2.4495,-8.9071,-3.7296,0.0113,-0.0340,-0.0020
P1J,J,107503,0.9925,0.9890,1.0000,1.0000,1.0000,-2.5255,-8.8316,-3.7320,0.0175,-0.0212,-0.0080
P1J,J,107523,0.9921,0.9866,1.0000,0.9799,0.9775,-2.4351,-8.9807,-3.7362,0.0039,-0.0033,-0.0008
P1J,J,107543,0.9893,0.9874,0.9936,0.9780,0.9750,-2.5363,-8.9250,-3.7021,-0.0148,-0.0369,0.0084
P1J,J,107563,0.9903,0.9831,0.9925,0.9923,0.9564,-2.5339,-8.8712,-3.6123,0.0117,-0.0029,0.0196
P1J,J,107583,0.9907,0.9862,0.9856,0.9912,0.9692,-2.3220,-8.9777,-3.6105,0.0171,0.0123,0.0292
P1J,J,107603,0.9914,0.9870,0.9970,0.9972,1.0000,-2.2519,-8.9214,-3.6249,0.0003,-0.0573,0.0013
P1J,J,107623,0.9932,0.9882,0.9902,1.0000,1.0000,-2.4537,-8.9562,-3.6805,0.0012,-0.0509,-0.0092
P1J,J,107643,0.9914,0.9850,0.9928,1.0000,0.9281,-2.3609,-8.9220,-3.6764,-0.0092,-0.0135,0.0023
P1J,J,107663,0.9907,0.9965,0.9913,0.9999,1.0000,-2.3280,-8.8825,-3.6464,-0.0052,-0.0254,-0.0097
P1J,J,107683,0.9900,0.9834,0.9936,1.0000,1.0000,-2.4022,-8.8801,-3.5925,0.0159,-0.0354,-0.0132
P1J,J,107703,0.9893,0.9862,0.9959,1.0000,1.0000,-2.4687,-8.9705,-3.6380,0.0240,-0.0212,-0.0040
P1J,J,107723,0.9885,0.9858,0.9864,1.0000,0.9633,-2.3824,-8.9191,-3.6434,0.0076,-0.0112,0.0007
P1J,J,107743,0.9921,0.9866,0.9894,0.9875,0.9237,-2.4208,-8.8526,-3.6470,0.0093,-0.0188,-0.0099
P1J,J,107763,0.9875,0.9870,0.9921,1.0000,0.9706,-2.4543,-8.8765,-3.6410,0.0234,-0.0398,-0.0176
P1J,J,107783,0.9903,0.9846,0.9837,0.9995,1.0000,-2.5136,-8.9107,-3.6350,0.0260,-0.0541,-0.0237
P1J,J,107803,0.9893,0.9965,0.9947,0.9875,0.9481,-2.6184,-8.9783,-3.6554,0.0175,-0.0638,-0.0183
P1J,J,107823,0.9864,0.9862,0.9947,1.0000,1.0000,-2.5788,-8.8676,-3.6542,0.0056,-0.0430,0.0040
P1J,J,107843,0.9907,0.9850,0.9955,0.9965,1.0000,-2.4435,-8.8490,-3.5853,0.0324,-0.0397,0.0105
P1J,J,107863,0.9900,0.9858,1.0000,0.9799,0.9966,-2.4040,-8.9328,-3.6740,0.0420,-0.0565,0.0008
P1J,J,107883,0.9900,0.9854,0.9951,1.0000,0.9261,-2.4723,-8.9693,-3.7308,0.0217,-0.0489,0.0047
P1J,J,107903,0.9893,0.9819,0.9792,0.9882,1.0000,-2.3525,-8.8891,-3.7290,0.0033,-0.0273,0.0155
P1J,J,107923,0.9860,0.9846,0.9864,0.9886,1.0000,-2.3064,-8.8664,-3.6596,0.0175,-0.0486,0.0015
P1J,J,107943,0.9878,0.9831,0.9940,0.9848,0.9721,-2.3795,-8.9532,-3.7255,0.0280,-0.0569,-0.0117
P1J,J,107963,0.9907,0.9850,0.9807,0.9893,0.9716,-2.3687,-8.9250,-3.6943,0.0181,-0.0382,-0.0080
P1J,J,107983,0.9889,0.9874,0.9833,0.9792,0.9760,-2.3549,-8.9819,-3.7009,0.0091,-0.0274,0.0000
P1J,J,108003,0.9896,0.9842,0.9932,0.9972,1.0000,-2.4058,-8.8855,-3.6650,0.0048,-0.0382,-0.0013
P1J,J,108023,0.9875,0.9775,1.0000,0.9890,0.8962,-2.3513,-8.8867,-3.6656,0.0193,-0.0329,-0.0109
P1J,J,108043,0.9878,0.9854,0.9887,0.9878,0.9613,-2.4459,-8.8340,-3.6662,0.0159,-0.0452,-0.0200
P1J,J,108063,0.9896,0.9854,0.9917,0.9859,0.9711,-2.4256,-8.9298,-3.6883,0.0258,-0.0384,-0.0124
P1J,J,108083,0.9889,0.9771,0.9879,0.9784,0.9770,-2.4591,-8.9071,-3.7542,0.0107,-0.0390,-0.0091
P1J,J,114083,0.0000,0.5800,0.8816,1.0000,0.8967,-4.1661,-8.4371,-2.5914,0.0899,-0.1430,-0.3692
P1J,J,114103,0.0000,0.5816,0.8751,1.0000,0.8860,-4.9038,-8.4981,-2.6130,0.0546,-0.2479,-0.5407
P1J,J,114123,0.0000,0.5828,0.8808,0.9720,0.7489,-5.3002,-8.5311,-2.6178,-0.0424,-0.2655,-0.6951
P1J,J,114143,0.0000,0.5816,0.8785,0.9829,0.8008,-5.5403,-8.1958,-2.4052,-0.1697,-0.4037,-0.7372
P1J,J,114163,0.0000,0.5812,0.8880,0.9886,0.8825,-6.1600,-7.7820,-2.1681,-0.1427,-0.6101,-0.6372
P1J,J,114183,0.0000,0.5792,0.8812,0.9788,0.7841,-6.5408,-7.6299,-2.1609,-0.1014,-0.5792,-0.4497
P1J,J,114203,0.0000,0.5800,0.8721,0.9701,0.7866,-6.0061,-7.6742,-2.2076,-0.1490,-0.5195,-0.2124
P1J,J,114223,0.0000,0.5840,0.8831,0.9859,0.8620,-6.2097,-7.9383,-2.3130,-0.3782,-0.4473,0.1232
P1J,J,114243,0.0000,0.5927,0.8846,0.9852,0.8468,-6.3702,-8.4149,-2.6333,-0.8082,-0.2713,0.7755
P1J,J,114263,0.0000,0.6026,0.8865,1.0000,0.9006,-6.2893,-8.9113,-2.5501,-1.4509,-0.1731,2.0423
P1J,J,114283,0.0000,0.6058,0.8880,0.9961,0.8811,-6.1738,-9.2867,-2.7387,-2.3455,-0.3030,3.5559
P1J,J,114303,0.0000,0.6026,0.8877,1.0000,0.8448,-5.6421,-9.7639,-2.5956,-3.6320,-0.5698,4.3656
P1J,J,114323,0.0000,0.5986,0.8979,0.9954,0.8855,-6.7504,-8.7999,-2.2328,-4.3657,-0.6131,4.3656
P1J,J,114343,0.0000,0.5860,0.8998,1.0000,0.7944,-5.8163,-7.3222,-1.5436,-4.3657,0.0460,4.3656
P1J,J,114363,0.0000,0.5725,0.9264,1.0000,0.7915,-2.3142,-7.5389,-0.8341,-4.3657,0.5291,4.3656
P1J,J,114383,0.0000,0.5638,0.9195,1.0000,0.8209,-1.6867,-6.0432,0.2036,-4.3657,0.6928,3.6681
P1J,J,114403,0.0000,0.5796,0.9230,1.0000,0.7230,-0.7724,-5.1499,1.5226,-4.3657,1.4344,2.7498
P1J,J,114423,0.0000,0.5844,0.9302,1.0000,0.7416,1.0107,-6.7552,2.1489,-4.2884,2.1738,2.1539
P1J,J,114443,0.0000,0.5986,0.9492,1.0000,0.8174,2.8010,-6.0169,1.9651,-4.3401,2.9439,1.7055
P1J,J,114463,0.0000,0.5868,0.9313,1.0000,0.7190,3.3866,-5.5714,2.1178,-4.3657,3.7483,0.9407
P1J,J,114483,0.0000,0.5733,0.9393,1.0000,0.7778,3.1016,-6.6600,1.1281,-4.3047,4.3656,-0.2332
P1J,J,114503,0.0000,0.5701,0.9336,1.0000,0.8155,4.8397,-8.0892,-0.9251,-4.3657,4.3656,-1.5051
P1J,J,114523,0.0000,0.5571,0.9264,1.0000,0.7029,0.0000,0.0000,0.0000,0.0000,0.0000,0.0000
P1J,J,114543,0.0000,0.5511,0.9484,1.0000,0.7983,0.0000,0.0000,0.0000,0.0000,0.0000,0.0000
P1J,J,114563,0.0000,0.5448,0.9256,1.0000,0.8551,0.0000,0.0000,0.0000,0.0000,0.0000,0.0000
P1J,J,114584,0.0000,0.5381,0.9188,1.0000,0.7734,0.0000,0.0000,0.0000,0.0000,0.0000,0.0000
P1J,J,114603,0.0000,0.5404,0.9203,1.0000,0.8527,0.0000,0.0000,0.0000,0.0000,0.0000,0.0000
P1J,J,114623,0.0000,0.5361,0.9389,1.0000,0.7621,0.0000,0.0000,0.0000,0.0000,0.0000,0.0000
P1J,J,114643,0.0033,0.5349,0.9104,1.0000,0.7283,0.0000,0.0000,0.0000,0.0000,0.0000,0.0000
P1J,J,114663,0.0000,0.5266,0.9082,1.0000,0.8527,0.0000,0.0000,0.0000,0.0000,0.0000,0.0000
P1J,J,114683,0.0000,0.5254,0.9070,1.0000,0.7832,0.0000,0.0000,0.0000,0.0000,0.0000,0.0000
P1J,J,114703,0.0000,0.5393,0.9013,1.0000,0.7905,0.0000,0.0000,0.0000,0.0000,0.0000,0.0000
P1J,J,114723,0.0000,0.5547,0.9146,1.0000,0.7396,0.0000,0.0000,0.0000,0.0000,0.0000,0.0000
P1J,J,114743,0.0000,0.5606,0.8998,1.0000,0.9031,0.0000,0.0000,0.0000,0.0000,0.0000,0.0000
P1J,J,114763,0.0000,0.5496,0.8964,1.0000,0.7088,0.0000,0.0000,0.0000,0.0000,0.0000,0.0000
P1J,J,114783,0.0000,0.5440,0.8956,1.0000,0.8189,0.0000,0.0000,0.0000,0.0000,0.0000,0.0000
P1J,J,114803,0.0000,0.5420,0.8911,1.0000,0.8101,0.0000,0.0000,0.0000,0.0000,0.0000,0.0000
P1J,J,114823,0.0000,0.5401,0.8945,1.0000,0.8537,0.0000,0.0000,0.0000,0.0000,0.0000,0.0000
P1J,J,114843,0.0000,0.5401,0.8903,1.0000,0.8395,0.0000,0.0000,0.0000,0.0000,0.0000,0.0000
P1J,J,114863,0.0000,0.5393,0.8831,1.0000,0.8404,0.0000,0.0000,0.0000,0.0000,0.0000,0.0000
P1J,J,114883,0.0000,0.5369,0.8877,1.0000,0.8747,0.0000,0.0000,0.0000,0.0000,0.0000,0.0000
P1J,J,114903,0.0000,0.5393,0.8820,1.0000,0.7778,0.0000,0.0000,0.0000,0.0000,0.0000,0.0000
P1J,J,114923,0.0000,0.5393,0.8603,1.0000,0.7773,0.0000,0.0000,0.0000,0.0000,0.0000,0.0000
P1J,J,114943,0.0000,0.5381,0.8683,1.0000,0.8057,0.0000,0.0000,0.0000,0.0000,0.0000,0.0000
P1J,J,114963,0.0000,0.5369,0.8812,0.9927,0.7479,0.0000,0.0000,0.0000,0.0000,0.0000,0.0000
P1J,J,114983,0.0000,0.5412,0.8702,1.0000,0.7788,0.0000,0.0000,0.0000,0.0000,0.0000,0.0000
P1J,J,115003,0.0000,0.5412,0.8835,0.9939,0.8355,0.0000,0.0000,0.0000,0.0000,0.0000,0.0000
P1J,J,115023,0.0000,0.5385,0.8945,1.0000,0.8248,0.0000,0.0000,0.0000,0.0000,0.0000,0.0000
P1J,J,115043,0.0000,0.5357,0.8690,1.0000,0.8267,0.0000,0.0000,0.0000,0.0000,0.0000,0.0000
P1J,J,115063,0.0000,0.5258,0.8774,1.0000,0.8600,0.0000,0.0000,0.0000,0.0000,0.0000,0.0000
P1J,J,115083,0.0000,0.5179,0.8744,1.0000,0.8116,0.0000,0.0000,0.0000,0.0000,0.0000,0.0000
P1J,J,115103,0.0000,0.5040,0.8983,1.0000,0.8297,0.0000,0.0000,0.0000,0.0000,0.0000,0.0000
P1J,J,115123,0.0000,0.4997,0.9093,1.0000,0.8370,0.0000,0.0000,0.0000,0.0000,0.0000,0.0000
P1J,J,115143,0.0000,0.4985,0.8808,1.0000,0.7886,0.0000,0.0000,0.0000,0.0000,0.0000,0.0000
P1J,J,115163,0.0000,0.4969,0.9013,1.0000,0.7318,0.0000,0.0000,0.0000,0.0000,0.0000,0.0000
P1J,J,115183,0.0000,0.4969,0.9154,1.0000,0.8160,0.0000,0.0000,0.0000,0.0000,0.0000,0.0000
P1J,J,115203,0.0000,0.4918,0.9017,1.0000,0.7181,0.0000,0.0000,0.0000,0.0000,0.0000,0.0000
P1J,J,115223,0.0000,0.4922,0.8865,1.0000,0.7832,0.0000,0.0000,0.0000,0.0000,0.0000,0.0000
P1J,J,115243,0.0000,0.4874,0.8941,1.0000,0.7435,0.0000,0.0000,0.0000,0.0000,0.0000,0.0000
P1J,J,115263,0.0000,0.4815,0.8930,1.0000,0.7161,0.0000,0.0000,0.0000,0.0000,0.0000,0.0000
P1J,J,115283,0.0000,0.4739,0.8706,1.0000,0.7127,0.0000,0.0000,0.0000,0.0000,0.0000,0.0000
P1J,J,115303,0.0000,0.4704,0.8596,1.0000,0.7548,0.0000,0.0000,0.0000,0.0000,0.0000,0.0000
P1J,J,115323,0.0000,0.4751,0.9002,1.0000,0.7846,0.0000,0.0000,0.0000,0.0000,0.0000,0.0000
P1J,J,115343,0.0000,0.4767,0.8785,1.0000,0.8732,0.0000,0.0000,0.0000,0.0000,0.0000,0.0000
P1J,J,115363,0.0000,0.4767,0.8618,1.0000,0.8262,0.0000,0.0000,0.0000,0.0000,0.0000,0.0000
P1J,J,115383,0.0000,0.4731,0.8850,1.0000,0.8282,0.0000,0.0000,0.0000,0.0000,0.0000,0.0000
P1J,J,115403,0.0000,0.4696,0.8721,1.0000,0.8360,0.0000,0.0000,0.0000,0.0000,0.0000,0.0000
P1J,J,115423,0.0000,0.4664,0.8717,1.0000,0.7837,0.0000,0.0000,0.0000,0.0000,0.0000,0.0000
P1J,J,115443,0.0000,0.4720,0.8584,1.0000,0.8184,0.0000,0.0000,0.0000,0.0000,0.0000,0.0000
P1J,J,115463,0.0000,0.4676,0.8683,1.0000,0.8595,0.0000,0.0000,0.0000,0.0000,0.0000,0.0000
P1J,J,115483,0.0000,0.4672,0.8652,1.0000,0.8204,0.0000,0.0000,0.0000,0.0000,0.0000,0.0000
P1J,J,115503,0.0000,0.4617,0.8497,1.0000,0.8801,0.0000,0.0000,0.0000,0.0000,0.0000,0.0000
P1J,J,115523,0.0000,0.4601,0.8269,1.0000,0.8639,0.0000,0.0000,0.0000,0.0000,0.0000,0.0000
P1J,J,115543,0.0000,0.4577,0.8652,1.0000,0.8160,0.0000,0.0000,0.0000,0.0000,0.0000,0.0000
P1J,J,115563,0.0000,0.4557,0.8318,1.0000,0.8326,0.0000,0.0000,0.0000,0.0000,0.0000,0.0000
P1J,J,115583,0.0000,0.4561,0.8318,0.9927,0.8106,0.0000,0.0000,0.0000,0.0000,0.0000,0.0000
P1J,J,115603,0.0000,0.4526,0.8531,1.0000,0.8923,0.0000,0.0000,0.0000,0.0000,0.0000,0.0000
P1J,J,115623,0.0000,0.4553,0.8482,0.9622,0.8458,0.0000,0.0000,0.0000,0.0000,0.0000,0.0000
P1J,J,115643,0.0000,0.4565,0.8466,0.9773,0.7695,0.0000,0.0000,0.0000,0.0000,0.0000,0.0000
P1J,J,115663,0.0000,0.4593,0.8641,1.0000,0.8331,0.0000,0.0000,0.0000,0.0000,0.0000,0.0000
P1J,J,115683,0.0000,0.4728,0.8542,1.0000,0.9085,0.0000,0.0000,0.0000,0.0000,0.0000,0.0000
P1J,J,115703,0.0000,0.4834,0.8409,1.0000,0.7969,0.0000,0.0000,0.0000,0.0000,0.0000,0.0000
P1J,J,115723,0.0000,0.4973,0.8485,1.0000,0.8468,0.0000,0.0000,0.0000,0.0000,0.0000,0.0000
P1J,J,115743,0.0000,0.4949,0.8520,1.0000,0.8845,0.0000,0.0000,0.0000,0.0000,0.0000,0.0000
P1J,J,115763,0.0000,0.5017,0.8478,1.0000,0.8962,0.0000,0.0000,0.0000,0.0000,0.0000,0.0000
P1J,J,115783,0.0000,0.5191,0.8523,1.0000,0.8238,0.0000,0.0000,0.0000,0.0000,0.0000,0.0000
P1J,J,115803,0.0000,0.5258,0.8622,1.0000,0.8982,0.0000,0.0000,0.0000,0.0000,0.0000,0.0000
P1J,J,115823,0.0000,0.5211,0.8542,1.0000,0.8610,0.0000,0.0000,0.0000,0.0000,0.0000,0.0000
P1J,J,115843,0.0000,0.5183,0.8622,1.0000,0.9060,0.0000,0.0000,0.0000,0.0000,0.0000,0.0000
P1J,J,115863,0.0000,0.5143,0.8782,1.0000,0.8282,0.0000,0.0000,0.0000,0.0000,0.0000,0.0000
P1J,J,115883,0.0000,0.5119,0.8930,1.0000,0.9168,0.0000,0.0000,0.0000,0.0000,0.0000,0.0000
P1J,J,115903,0.0000,0.5119,0.8808,1.0000,0.9065,0.0000,0.0000,0.0000,0.0000,0.0000,0.0000
P1J,J,115923,0.0000,0.5084,0.8998,1.0000,0.9026,0.0000,0.0000,0.0000,0.0000,0.0000,0.0000
P1J,J,115943,0.0000,0.5139,0.9264,1.0000,0.8052,0.0000,0.0000,0.0000,0.0000,0.0000,0.0000
P1J,J,115963,0.0000,0.5218,0.9025,1.0000,0.8106,0.0000,0.0000,0.0000,0.0000,0.0000,0.0000
P1J,J,115983,0.0000,0.5179,0.9188,1.0000,0.8561,0.0000,0.0000,0.0000,0.0000,0.0000,0.0000
P1J,J,116003,0.0000,0.5092,0.9116,1.0000,0.9623,0.0000,0.0000,0.0000,0.0000,0.0000,0.0000
P1J,J,116023,0.0000,0.4985,0.9287,1.0000,0.8541,0.0000,0.0000,0.0000,0.0000,0.0000,0.0000
P1J,J,116043,0.0000,0.4795,0.9101,1.0000,0.7837,0.0000,0.0000,0.0000,0.0000,0.0000,0.0000
P1J,J,116063,0.0000,0.4581,0.9055,1.0000,0.8091,0.0000,0.0000,0.0000,0.0000,0.0000,0.0000
P1J,J,116083,0.0000,0.4403,0.9066,1.0000,0.7758,0.0000,0.0000,0.0000,0.0000,0.0000,0.0000
P1J,J,116103,0.0000,0.4051,0.9184,1.0000,0.7993,0.0000,0.0000,0.0000,0.0000,0.0000,0.0000
P1J,J,116123,0.0000,0.3817,0.9032,1.0000,0.8076,0.0000,0.0000,0.0000,0.0000,0.0000,0.0000
P1J,J,116143,0.0000,0.3837,0.9002,1.0000,0.9241,0.0000,0.0000,0.0000,0.0000,0.0000,0.0000
P1J,J,116163,0.0000,0.3861,0.9074,1.0000,0.8674,0.0000,0.0000,0.0000,0.0000,0.0000,0.0000
P1J,J,116183,0.0000,0.3825,0.8877,1.0000,0.8160,0.0000,0.0000,0.0000,0.0000,0.0000,0.0000
P1J,J,116203,0.0000,0.3908,0.8854,1.0000,0.8062,0.0000,0.0000,0.0000,0.0000,0.0000,0.0000
P1J,J,116223,0.0000,0.4169,0.8789,1.0000,0.8067,0.0000,0.0000,0.0000,0.0000,0.0000,0.0000
P1J,J,116243,0.0000,0.4435,0.8949,1.0000,0.7837,0.0000,0.0000,0.0000,0.0000,0.0000,0.0000
P1J,J,116263,0.0000,0.4482,0.8702,1.0000,0.9060,0.0000,0.0000,0.0000,0.0000,0.0000,0.0000
P1J,J,116283,0.0000,0.4391,0.8835,0.9976,0.8120,0.0000,0.0000,0.0000,0.0000,0.0000,0.0000
P1J,J,116303,0.0000,0.4530,0.8656,0.9777,0.8165,0.0000,0.0000,0.0000,0.0000,0.0000,0.0000
P1J,J,116323,0.0000,0.4510,0.8751,1.0000,0.7592,0.0000,0.0000,0.0000,0.0000,0.0000,0.0000
P1J,J,116343,0.0000,0.4498,0.8706,1.0000,0.7910,0.0000,0.0000,0.0000,0.0000,0.0000,0.0000
P1J,J,116363,0.0000,0.4454,0.8846,0.9848,0.8365,0.0000,0.0000,0.0000,0.0000,0.0000,0.0000
P1J,J,116383,0.0000,0.4423,0.8706,1.0000,0.7983,0.0000,0.0000,0.0000,0.0000,0.0000,0.0000
P1J,J,116403,0.0000,0.4419,0.8721,1.0000,0.7714,0.0000,0.0000,0.0000,0.0000,0.0000,0.0000
P1J,J,116423,0.0000,0.4439,0.8671,0.9950,0.7959,0.0000,0.0000,0.0000,0.0000,0.0000,0.0000
P1J,J,116443,0.0000,0.4446,0.8679,1.0000,0.8189,0.0000,0.0000,0.0000,0.0000,0.0000,0.0000
P1J,J,116463,0.0000,0.4474,0.8785,1.0000,0.9114,0.0000,0.0000,0.0000,0.0000,0.0000,0.0000
P1J,J,116483,0.0000,0.4522,0.8645,1.0000,0.7944,0.0000,0.0000,0.0000,0.0000,0.0000,0.0000
P1J,J,116503,0.0000,0.4494,0.8839,1.0000,0.8723,0.0000,0.0000,0.0000,0.0000,0.0000,0.0000
P1J,J,116523,0.0000,0.4442,0.8763,1.0000,0.7856,0.0000,0.0000,0.0000,0.0000,0.0000,0.0000
P1J,J,116543,0.0000,0.4336,0.8854,1.0000,0.8502,0.0000,0.0000,0.0000,0.0000,0.0000,0.0000
P1J,J,116563,0.0000,0.4268,0.8861,1.0000,0.7616,0.0000,0.0000,0.0000,0.0000,0.0000,0.0000
P1J,J,116583,0.0000,0.4130,0.8846,1.0000,0.7347,0.0000,0.0000,0.0000,0.0000,0.0000,0.0000
P1J,J,116603,0.0000,0.3948,0.8884,1.0000,0.6823,0.0000,0.0000,0.0000,0.0000,0.0000,0.0000
P1J,J,116623,0.0000,0.3809,0.8903,1.0000,0.7283,0.0000,0.0000,0.0000,0.0000,0.0000,0.0000
P1J,J,116643,0.0000,0.3829,0.8888,1.0000,0.6858,0.0000,0.0000,0.0000,0.0000,0.0000,0.0000
P1J,J,116663,0.0000,0.4019,0.8952,1.0000,0.7974,0.0000,0.0000,0.0000,0.0000,0.0000,0.0000
P1J,J,116683,0.0000,0.4241,0.8987,1.0000,0.7205,0.0000,0.0000,0.0000,0.0000,0.0000,0.0000
P1J,J,116703,0.0000,0.4383,0.8941,1.0000,0.8013,0.0000,0.0000,0.0000,0.0000,0.0000,0.0000
P1J,J,116723,0.0000,0.4320,0.8990,1.0000,0.7964,0.0000,0.0000,0.0000,0.0000,0.0000,0.0000
P1J,J,116743,0.0000,0.4197,0.9044,1.0000,0.7871,0.0000,0.0000,0.0000,0.0000,0.0000,0.0000
P1J,J,116763,0.0000,0.4118,0.8918,1.0000,0.7748,0.0000,0.0000,0.0000,0.0000,0.0000,0.0000
P1J,J,116783,0.0000,0.4031,0.8785,1.0000,0.7582,0.0000,0.0000,0.0000,0.0000,0.0000,0.0000
P1J,J,116803,0.0000,0.3971,0.8645,1.0000,0.7646,0.0000,0.0000,0.0000,0.0000,0.0000,0.0000
P1J,J,116823,0.0000,0.3979,0.8698,1.0000,0.7220,0.0000,0.0000,0.0000,0.0000,0.0000,0.0000
P1J,J,116843,0.0000,0.4039,0.8664,1.0000,0.8042,0.0000,0.0000,0.0000,0.0000,0.0000,0.0000
P1J,J,116863,0.0000,0.3900,0.8615,1.0000,0.6745,0.0000,0.0000,0.0000,0.0000,0.0000,0.0000
P1J,J,116883,0.0000,0.3817,0.8987,1.0000,0.6990,0.0000,0.0000,0.0000,0.0000,0.0000,0.0000
P1J,J,116903,0.0000,0.3777,0.8539,1.0000,0.7293,0.0000,0.0000,0.0000,0.0000,0.0000,0.0000
P1J,J,116923,0.0000,0.3837,0.8539,1.0000,0.7298,0.0000,0.0000,0.0000,0.0000,0.0000,0.0000
P1J,J,116943,0.0000,0.3777,0.8599,1.0000,0.8052,0.0000,0.0000,0.0000,0.0000,0.0000,0.0000
P1J,J,116963,0.0000,0.3607,0.8569,1.0000,0.7357,0.0000,0.0000,0.0000,0.0000,0.0000,0.0000
P1J,J,116983,0.0000,0.3413,0.8428,1.0000,0.7283,0.0000,0.0000,0.0000,0.0000,0.0000,0.0000
P1J,J,117003,0.0000,0.3302,0.8220,1.0000,0.7332,0.0000,0.0000,0.0000,0.0000,0.0000,0.0000
P1J,J,117023,0.0000,0.3302,0.8345,1.0000,0.7851,0.0000,0.0000,0.0000,0.0000,0.0000,0.0000
P1J,J,117043,0.0000,0.3358,0.8197,1.0000,0.8145,0.0000,0.0000,0.0000,0.0000,0.0000,0.0000
P1J,J,117063,0.0000,0.3338,0.8444,1.0000,0.7724,0.0000,0.0000,0.0000,0.0000,0.0000,0.0000
P1J,J,117083,0.0000,0.3362,0.8174,0.9995,0.8723,0.0000,0.0000,0.0000,0.0000,0.0000,0.0000
P1J,J,117103,0.0000,0.3330,0.8258,1.0000,0.8272,0.0000,0.0000,0.0000,0.0000,0.0000,0.0000
P1J,J,117123,0.0000,0.3314,0.8258,1.0000,0.7362,0.0000,0.0000,0.0000,0.0000,0.0000,0.0000
P1J,J,117143,0.0000,0.3271,0.8117,0.9935,0.7920,0.0000,0.0000,0.0000,0.0000,0.0000,0.0000
P1J,J,117163,0.0000,0.3259,0.8170,1.0000,0.8869,0.0000,0.0000,0.0000,0.0000,0.0000,0.0000
P1J,J,117183,0.0000,0.3259,0.8353,1.0000,0.8062,0.0000,0.0000,0.0000,0.0000,0.0000,0.0000
P1J,J,117203,0.0000,0.3251,0.8231,1.0000,0.8468,0.0000,0.0000,0.0000,0.0000,0.0000,0.0000
P1J,J,117223,0.0000,0.3199,0.8235,1.0000,0.8399,0.0000,0.0000,0.0000,0.0000,0.0000,0.0000
P1J,J,117243,0.0000,0.3326,0.8242,1.0000,0.8737,0.0000,0.0000,0.0000,0.0000,0.0000,0.0000
P1J,J,117263,0.0000,0.3302,0.8353,1.0000,0.8654,0.0000,0.0000,0.0000,0.0000,0.0000,0.0000
P1J,J,117283,0.0000,0.3579,0.8273,1.0000,0.8889,0.0000,0.0000,0.0000,0.0000,0.0000,0.0000
P1J,J,117303,0.0000,0.4043,0.8337,1.0000,0.8375,0.0000,0.0000,0.0000,0.0000,0.0000,0.0000
P1J,J,117323,0.0000,0.4320,0.8159,0.9905,0.8576,0.0000,0.0000,0.0000,0.0000,0.0000,0.0000
P1J,J,117343,0.0000,0.4569,0.8406,1.0000,0.8615,0.0000,0.0000,0.0000,0.0000,0.0000,0.0000
P1J,J,117363,0.0000,0.4613,0.8440,1.0000,0.8199,0.0000,0.0000,0.0000,0.0000,0.0000,0.0000
P1J,J,117383,0.0000,0.4407,0.8413,1.0000,0.9266,-10.9566,-6.7390,-4.4200,-4.3657,-0.2562,4.3656
P1J,J,117403,0.0000,0.4106,0.8516,1.0000,0.8977,-10.1501,-4.5547,-4.4254,-4.3657,0.9482,4.3656
P1J,J,117423,0.0000,0.4062,0.8896,1.0000,0.7504,-6.2618,-5.7007,-2.2525,-4.3657,2.1420,3.3039
P1J,J,117443,0.0000,0.3837,0.8778,1.0000,0.8581,-4.0787,-5.0032,0.4521,-4.3657,2.9753,2.1004
P1J,J,117463,0.0000,0.3813,0.8865,1.0000,0.8884,-1.0724,-5.7325,2.3824,-4.3657,3.8764,0.6824
P1J,J,117483,0.0000,0.3801,0.8937,1.0000,0.9075,0.9640,-5.8127,2.7112,-4.3657,4.3656,-0.3888
P1J,J,117503,0.0000,0.3726,0.8994,1.0000,0.8943,4.6673,-6.5761,3.6249,-4.3657,4.3656,-1.0095
P1J,J,117523,0.0000,0.3556,0.8990,1.0000,0.9095,4.0033,-4.7535,3.9763,-4.3657,4.3656,-2.5037
P1J,J,117543,0.0000,0.3338,0.8975,1.0000,0.8845,3.3656,-5.7463,3.1997,-4.3657,4.3656,-4.3603
P1J,J,117563,0.0000,0.3077,0.8994,1.0000,0.9060,7.2258,-6.7198,2.0555,-4.3657,4.3656,-4.3657
P1J,J,117583,0.0000,0.2863,0.8949,1.0000,0.7959,14.3162,-3.0489,3.0357,-4.3657,4.3656,-4.3657
P1J,J,117603,0.0000,0.2685,0.8892,1.0000,0.8840,14.7126,0.4557,5.6768,-4.3657,4.3656,-4.3657
P1J,J,117623,0.0000,0.2499,0.8854,1.0000,0.8674,12.8235,0.3479,8.2341,-3.4319,4.3656,-4.3657
P1J,J,117643,0.0000,0.2336,0.8850,1.0000,0.8522,13.4606,0.3826,9.7387,-0.6876,4.3656,-4.3657
P1J,J,117663,0.0000,0.2273,0.8892,1.0000,0.9075,10.5022,-0.4694,8.4736,1.8902,4.3656,-4.3657
P1J,J,117683,0.0000,0.2245,0.8744,1.0000,0.8987,7.4521,-3.4153,6.4995,3.5974,4.3656,-4.3657
P1J,J,117703,0.0000,0.2150,0.8683,1.0000,0.8478,8.9167,-5.8462,5.1307,3.3701,4.3656,-4.3657
P1J,J,117723,0.0000,0.1976,0.8656,1.0000,0.8537,9.6795,-6.4228,4.5080,2.4722,4.3656,-4.3657
P1J,J,117743,0.0000,0.1948,0.8466,0.9946,0.9378,6.5109,-6.4869,2.5076,2.1418,4.3656,-4.3657
P1J,J,117763,0.0000,0.1857,0.8573,1.0000,0.9330,5.7912,-7.4371,1.7819,1.9425,4.3548,-4.3657
P1J,J,117783,0.0000,0.1770,0.8421,1.0000,0.9006,5.6169,-7.2090,0.4604,1.8997,3.7642,-3.6379
P1J,J,117803,0.0000,0.1735,0.8463,1.0000,0.8057,5.9193,-7.2156,-0.2772,1.8951,2.7558,-2.8577
P1J,J,117823,0.0000,0.1584,0.8565,1.0000,0.8811,3.7237,-8.0377,-1.0053,1.8359,1.9107,-2.4541
P1J,J,117843,0.0000,0.1529,0.8546,0.9923,0.8909,4.1601,-8.1359,-1.3831,1.4851,1.5379,-1.9068
P1J,J,117863,0.0000,0.1525,0.8466,0.9837,0.8581,3.7757,-8.7490,-1.6765,1.1103,1.1163,-1.3887
P1J,J,117883,0.0000,0.1505,0.8288,1.0000,0.8967,5.3619,-8.5598,-1.7951,0.9165,0.5581,-0.7572
P1J,J,117903,0.0000,0.1545,0.8554,0.9961,0.7837,5.4666,-8.5754,-1.8621,0.8860,-0.4663,-0.4367
P1J,J,117923,0.0000,0.1556,0.8379,0.9965,0.8106,6.0504,-8.5658,-1.9891,0.8671,-1.2999,-0.2196
P1J,J,117943,0.0000,0.1529,0.8387,0.9972,0.8120,8.1359,-8.8412,-2.3184,0.7545,-2.5413,-0.0356
P1J,J,117963,0.0000,0.1537,0.8356,1.0000,0.7621,9.0873,-8.7131,-2.9279,0.5448,-4.3657,0.2204
P1J,J,117983,0.0000,0.1624,0.8394,0.9833,0.8625,8.3957,-9.6166,-3.7949,0.0525,-4.3657,0.7584
P1J,J,118003,0.0000,0.1746,0.8417,1.0000,0.9016,7.4994,-10.3040,-4.6583,-0.7801,-4.3657,1.4749
P1J,J,118023,0.0000,0.1861,0.8577,1.0000,0.8723,7.4713,-10.8141,-4.2733,-2.0254,-4.3657,2.2299
P1J,J,118043,0.0000,0.1857,0.8501,1.0000,0.7934,6.5761,-10.7315,-3.9141,-3.4871,-4.3657,3.0650
P1J,J,118063,0.0000,0.1956,0.8592,1.0000,0.8556,5.2361,-9.4945,-3.1033,-4.3657,-4.3657,3.3253
P1J,J,118083,0.0000,0.1940,0.8569,1.0000,0.7543,2.8728,-7.4078,-0.9736,-4.3657,-4.3657,2.9862
P1J,J,118103,0.0000,0.1933,0.8842,1.0000,0.7558,2.2783,-5.1685,3.6901,-3.5317,-4.3657,2.2316
P1J,J,118123,0.0000,0.1881,0.8447,1.0000,0.7093,0.5317,-3.5530,7.6455,-0.0590,-4.3657,0.6900
P1J,J,118143,0.0000,0.1857,0.8451,1.0000,0.7396,0.4048,-5.4265,8.1970,3.2290,-4.3657,-0.4820
P1J,J,118163,0.0000,0.1750,0.8174,1.0000,0.8409,0.7185,-8.8011,6.7791,4.2526,-4.3657,-1.8831
P1J,J,118183,0.0000,0.1750,0.8315,1.0000,0.8076,1.2622,-8.6023,5.4086,3.5042,-4.3657,-3.2454
P1J,J,118203,0.0000,0.1703,0.8235,1.0000,0.7753,-0.1305,-6.4881,3.9721,3.4444,-4.3657,-3.3219
P1J,J,118223,0.0000,0.1648,0.8296,1.0000,0.7602,-3.4404,-7.2234,2.4621,3.8432,-4.3657,-2.3294
P1J,J,118243,0.0000,0.1683,0.8242,1.0000,0.7690,-8.5766,-7.2701,0.6401,4.0088,-4.3657,-2.6839
P1J,J,118263,0.0000,0.1988,0.8223,1.0000,0.7445,-12.8846,-9.9094,-0.7556,3.2905,-4.3657,-2.6728
P1J,J,118283,0.0000,0.2182,0.8212,1.0000,0.8258,-14.0588,-8.6251,-1.2891,2.3265,-3.7883,-1.5657
P1J,J,118303,0.0000,0.2154,0.8117,1.0000,0.8649,-8.8903,-7.8431,-0.9742,1.6870,-2.2436,-0.7349
P1J,J,118323,0.0000,0.2166,0.8144,0.9969,0.7949,-6.9324,-7.2521,-1.4388,1.2891,-2.1372,-0.4582
P1J,J,118343,0.0000,0.1996,0.8018,1.0000,0.8590,-6.8246,-7.6042,-2.3106,0.7172,-2.3686,-0.4868
P1J,J,118363,0.0000,0.1901,0.7954,1.0000,0.7817,-6.9252,-7.4048,-2.6339,-0.0188,-2.1854,-0.6354
P1J,J,118383,0.0000,0.1754,0.8178,1.0000,0.7783,-6.0558,-6.1402,-1.9998,-0.4510,-1.8878,-0.6638
P1J,J,118403,0.0000,0.1691,0.8227,1.0000,0.8013,-5.6103,-5.9947,-1.7370,-0.4008,-1.4849,-0.6411
P1J,J,118423,0.0000,0.1687,0.8026,1.0000,0.7372,-4.2973,-7.0479,-1.8202,-0.4843,-1.3183,-0.6959
P1J,J,118443,0.0000,0.1687,0.8121,1.0000,0.8120,-3.9955,-7.3773,-2.1657,-0.9387,-1.4091,-0.8808
P1J,J,118463,0.0000,0.1703,0.8147,1.0000,0.7944,-4.1422,-7.0222,-1.9819,-1.3757,-1.5655,-0.9495
P1J,J,118483,0.0000,0.1683,0.8212,0.9950,0.7651,-5.2493,-5.1643,-1.4568,-1.3006,-1.2971,-1.0135
P1J,J,118503,0.0000,0.1703,0.8091,1.0000,0.8928,-5.2301,-6.2414,-1.7915,-0.9753,-0.7402,-0.9134
P1J,J,118523,0.0000,0.1762,0.8178,1.0000,0.8258,-4.9433,-7.5060,-2.1609,-1.2045,-0.1867,-0.8438
P1J,J,118543,0.0000,0.1869,0.8223,1.0000,0.9197,-4.1727,-6.6115,-1.4951,-1.4807,-0.2689,-0.7569
P1J,J,118563,0.0000,0.1889,0.8083,1.0000,0.8204,-5.1960,-6.4085,-0.8921,-1.4866,-0.4999,-0.6563
P1J,J,118583,0.0000,0.1937,0.8337,1.0000,0.9139,-7.3515,-7.4054,-1.0376,-1.5799,-0.2854,-0.4927
P1J,J,118603,0.0000,0.2012,0.8235,1.0000,0.9070,-8.0862,-8.0850,-1.0987,-1.9220,0.3940,-0.1212
P1J,J,118623,0.0000,0.2194,0.8299,1.0000,0.9447,-8.1880,-8.3664,-0.8341,-2.5362,0.9939,0.4754
P1J,J,118643,0.0000,0.2511,0.8315,1.0000,0.9726,-9.6759,-9.3029,-1.0532,-3.6555,1.5756,1.5986
P1J,J,118663,0.0000,0.2768,0.8349,1.0000,0.9021,-9.1328,-9.3639,-1.3586,-4.3657,2.0386,3.0136
P1J,J,118683,0.0000,0.2669,0.8258,1.0000,0.8752,-8.4628,-6.1678,-0.9388,-4.3657,2.1907,4.1307
P1J,J,118703,0.0000,0.2455,0.8455,1.0000,0.9447,-9.0544,-4.2069,-0.5892,-4.3657,2.6346,4.1711
P1J,J,118723,0.0000,0.2400,0.8569,1.0000,0.7915,-7.0402,-4.0715,0.0934,-4.3657,4.0466,3.3825
P1J,J,118743,0.0000,0.2321,0.8880,1.0000,0.8336,-2.7585,-4.0572,1.7939,-4.3657,4.3656,2.1222
P1J,J,118763,0.0000,0.2233,0.8664,1.0000,0.8708,0.5461,-5.7666,2.4669,-4.3657,4.3656,0.8090
P1J,J,118783,0.0000,0.2190,0.8964,1.0000,0.8879,3.8949,-6.7827,2.7740,-4.3457,4.3656,-0.8499
P1J,J,118803,0.0000,0.2051,0.9006,1.0000,0.8125,2.8525,-6.3378,2.9878,-4.3657,4.3656,-1.5552
P1J,J,118823,0.0000,0.1952,0.8820,1.0000,0.8595,2.8058,-5.2876,2.1040,-4.3657,4.3656,-3.0808
P1J,J,118843,0.0000,0.1746,0.8842,1.0000,0.7337,6.0384,-3.5602,3.2195,-4.3657,4.3656,-4.3657
P1J,J,118863,0.0000,0.1592,0.8827,1.0000,0.8644,12.0206,-1.4568,4.6697,-4.3657,4.3656,-4.3657
P1J,J,118883,0.0000,0.1497,0.8911,1.0000,0.7783,14.9353,1.4753,6.4282,-4.3657,4.3656,-4.3657
P1J,J,118903,0.0000,0.1493,0.8785,1.0000,0.8292,14.5821,1.4256,7.8239,-3.1129,4.3656,-4.3657
P1J,J,118923,0.0000,0.1450,0.8694,1.0000,0.8620,13.5672,0.0659,8.2329,-0.9946,4.3656,-4.3657
P1J,J,118943,0.0000,0.1386,0.8626,1.0000,0.8042,13.4013,-0.8862,8.4856,0.3764,4.3656,-4.3657
P1J,J,118963,0.0000,0.1370,0.8584,1.0000,0.8747,12.2661,-2.2298,7.7700,1.2504,4.3656,-4.3657
P1J,J,118983,0.0000,0.1370,0.8618,1.0000,0.8037,8.9424,-3.8039,6.1845,1.4731,4.3656,-4.3657
P1J,J,119003,0.0000,0.1347,0.8482,1.0000,0.8306,9.4921,-4.9822,4.9900,1.0864,4.3656,-4.3657
P1J,J,119023,0.0000,0.1323,0.8694,0.9923,0.8228,11.7679,-3.7087,4.8056,1.5913,4.3656,-4.3657
P1J,J,119043,0.0000,0.1248,0.8504,1.0000,0.8272,8.5400,-5.2798,3.2393,2.3763,2.9436,-4.3657
P1J,J,119063,0.0000,0.1200,0.8607,1.0000,0.9256,6.0432,-7.3803,1.6735,2.0446,2.7318,-4.3657
P1J,J,119083,0.0000,0.1153,0.8470,1.0000,0.7993,7.6317,-6.7713,1.2245,1.2677,2.3017,-3.7891
P1J,J,119103,0.0000,0.1117,0.8603,0.9886,0.8874,6.0845,-5.4493,0.5293,1.4236,1.3893,-3.5811
P1J,J,119123,0.0000,0.1030,0.8425,1.0000,0.8346,4.7721,-6.2815,-0.0174,2.0696,0.6837,-3.1886
P1J,J,119143,0.0000,0.0872,0.8406,0.9957,0.8013,3.6261,-8.5305,-0.9233,1.9546,0.6809,-2.9058
P1J,J,119163,0.0000,0.0571,0.8303,0.9871,0.8341,4.7224,-8.9208,-1.2640,1.2821,0.5151,-2.3062
P1J,J,119183,0.0000,0.0488,0.8265,0.9950,0.9099,5.0008,-7.5485,-1.6017,1.1437,-0.3834,-1.9079
P1J,J,119203,0.0000,0.0484,0.8428,1.0000,0.8150,2.4459,-8.6688,-2.0897,1.1680,-1.0337,-1.5477
P1J,J,119223,0.0000,0.0472,0.8227,1.0000,0.9481,0.3892,-9.7705,-2.4130,0.7771,-0.3136,-0.9649
P1J,J,119243,0.0000,0.0436,0.8265,1.0000,0.9085,2.2184,-9.1514,-2.3645,0.4363,0.2698,-0.1861
P1J,J,119263,0.0000,0.0476,0.8277,1.0000,0.8336,2.9704,-9.3250,-2.7501,0.0727,0.1242,0.4438
P1J,J,119283,0.0000,0.0432,0.8284,1.0000,0.9511,4.1823,-8.6514,-2.6752,-0.1931,-0.4021,0.8705
P1J,J,119303,0.0000,0.0484,0.8269,1.0000,0.7704,4.3889,-8.4712,-2.2441,-0.1399,-1.0933,1.2604
P1J,J,119323,0.0000,0.0507,0.8269,1.0000,0.9075,4.5541,-8.8879,-1.7412,-0.0449,-1.6627,1.5882
P1J,J,119343,0.0000,0.0571,0.8273,1.0000,0.8248,5.3822,-9.4723,-1.4622,-0.2185,-2.0819,1.8791
P1J,J,119363,0.0000,0.0654,0.8246,1.0000,0.8850,7.4557,-9.7944,-1.4310,-0.7921,-3.0453,2.6057
P1J,J,119383,0.0000,0.0725,0.8345,1.0000,0.8023,10.2034,-9.5070,-1.9118,-1.6407,-4.3657,3.2291
P1J,J,119403,0.0000,0.0939,0.8394,1.0000,0.9207,10.7429,-9.5424,-2.7812,-2.5510,-4.3657,3.3721
P1J,J,119423,0.0000,0.1105,0.8463,1.0000,0.8292,9.8447,-9.0987,-3.3512,-3.3609,-4.3657,3.5398
P1J,J,119443,0.0000,0.1153,0.8478,1.0000,0.8634,7.5545,-8.9226,-3.2949,-3.9391,-4.3657,3.8632
P1J,J,119463,0.0000,0.1157,0.8603,1.0000,0.7523,3.2656,-8.6035,-1.0574,-4.0753,-4.3657,4.2996
P1J,J,119483,0.0000,0.1161,0.8679,1.0000,0.6985,1.0065,-6.8330,3.6704,-2.7672,-4.3657,4.0208
P1J,J,119503,0.0000,0.1030,0.8611,1.0000,0.7230,-1.7675,-5.8552,7.9497,-0.1743,-4.3657,3.5563
P1J,J,119523,0.0000,0.0975,0.8402,1.0000,0.7137,0.7951,-6.5612,8.7394,2.1638,-4.3657,2.8043
P1J,J,119543,0.0000,0.0975,0.8497,1.0000,0.7577,1.8352,-8.0227,6.9665,3.0526,-4.3657,2.0050
P1J,J,119563,0.0000,0.1010,0.8409,1.0000,0.7611,1.5286,-8.8478,5.1481,3.1960,-4.3657,1.1907
P1J,J,119583,0.0000,0.1244,0.8425,1.0000,0.7597,-2.1471,-8.3233,4.3062,3.4415,-4.3657,-0.3584
P1J,J,119603,0.0000,0.1331,0.8470,1.0000,0.8057,-5.3672,-6.6468,3.9685,4.0697,-4.3657,-2.3375
P1J,J,119623,0.0000,0.1275,0.8372,1.0000,0.8326,-6.7749,-6.1833,3.7590,4.3656,-4.3657,-3.3930
P1J,J,119643,0.0000,0.1180,0.8330,1.0000,0.8233,-6.9156,-7.7868,2.6615,4.2703,-4.1720,-3.6415
P1J,J,119663,0.0000,0.1141,0.8478,1.0000,0.8444,-7.3222,-8.0628,1.4185,3.2810,-3.3172,-3.5885
P1J,J,119683,0.0000,0.0986,0.8284,1.0000,0.7974,-7.3970,-5.4696,0.8568,2.7212,-2.7885,-3.5475
P1J,J,119703,0.0000,0.1002,0.8303,1.0000,0.8649,-8.5430,-5.6409,0.3670,2.6967,-2.9338,-3.3813
P1J,J,119723,0.0000,0.1018,0.8132,1.0000,0.8086,-9.8226,-6.1486,-0.3676,2.1017,-2.4821,-2.8581
P1J,J,119743,0.0000,0.1022,0.8189,1.0000,0.8468,-8.5921,-5.4002,-0.3898,1.3233,-2.0547,-2.5279
P1J,J,119763,0.0000,0.1038,0.8527,1.0000,0.8018,-9.3280,-3.5524,-0.4814,1.1572,-1.6879,-2.3918
P1J,J,119783,0.0000,0.0911,0.8178,1.0000,0.8532,-8.5969,-4.7427,-1.2472,0.9352,-1.3895,-1.9774
P1J,J,119803,0.0000,0.0761,0.8254,1.0000,0.7141,-8.3383,-3.8225,-1.7071,0.4920,-1.2584,-1.7686
P1J,J,119823,0.0000,0.0689,0.8189,0.9837,0.8610,-8.3161,-3.3907,-1.6352,0.1324,-1.2072,-1.5755
P1J,J,119843,0.0000,0.0583,0.8098,1.0000,0.8321,-8.8448,-2.7363,-1.5250,-0.2433,-1.0962,-1.5683
P1J,J,119863,0.0000,0.0527,0.8170,1.0000,0.7856,-9.3388,-1.8136,-1.1448,-0.2870,-0.9252,-1.1036
P1J,J,119883,0.0000,0.0452,0.7904,1.0000,0.8630,-9.1089,-2.5471,-1.3945,-0.2575,-0.5295,-0.6403
P1J,J,119903,0.0000,0.0436,0.8132,1.0000,0.8341,-8.1221,-2.5208,-1.3759,-0.2916,-0.3782,-0.0975
P1J,J,119923,0.0000,0.0400,0.8159,1.0000,0.8576,-7.4557,-2.8447,-1.7573,-0.4101,-0.4467,0.0879
P1J,J,119943,0.0000,0.0389,0.7961,1.0000,0.8860,-8.2652,-2.4920,-2.1579,-0.6548,-0.2519,0.1294
P1J,J,119963,0.0000,0.0424,0.8159,1.0000,0.7279,-8.4107,-1.7053,-1.7448,-0.5911,-0.0613,0.6039
P1J,J,119983,0.0000,0.0670,0.8026,0.9905,0.8027,-9.5825,-3.0650,-1.9957,-0.5508,0.2733,1.2857
P1J,J,120003,0.0000,0.1208,0.8163,1.0000,0.8997,-9.9154,-4.0362,-2.1681,-0.9918,0.7264,2.3461
P1J,J,120023,0.0000,0.1992,0.8353,1.0000,0.9222,-10.2088,-5.4109,-2.5734,-1.9734,0.9918,3.6721
P1J,J,120043,0.0000,0.2792,0.8353,0.9987,0.8184,-10.9572,-5.0936,-2.5663,-3.1549,1.1658,4.3656
P1J,J,120063,0.0000,0.3572,0.8265,1.0000,0.9011,-10.9860,-4.5547,-2.1388,-4.2005,1.5343,4.3656
P1J,J,120083,0.0000,0.4043,0.8258,1.0000,0.7900,-11.5548,-3.2165,-2.0735,-4.3657,2.3803,4.3656
P1J,J,120103,0.0000,0.3789,0.8223,0.9999,0.8703,-10.9961,-2.6842,-1.8627,-4.3657,4.1097,4.3656
P1J,J,120123,0.0000,0.3730,0.8273,1.0000,0.8762,-7.9880,-3.1985,-1.6166,-4.1359,4.3656,4.3656
P1J,J,120143,0.0000,0.3651,0.8504,1.0000,0.8825,-1.7322,-4.8840,-1.5717,-3.5206,4.3656,4.3656
P1J,J,120163,0.0000,0.3651,0.8573,1.0000,0.8659,0.3886,-5.6157,-1.3244,-3.2427,4.3656,3.4716
P1J,J,120183,0.0000,0.3619,0.8466,1.0000,0.7665,0.0665,-7.5150,-2.2208,-3.8521,4.3656,2.8514
P1J,J,120203,0.0000,0.3508,0.8573,1.0000,0.7513,1.5705,-9.1250,-3.6764,-4.3657,4.3656,1.6756
P1J,J,120223,0.0000,0.3247,0.8497,1.0000,0.8375,5.5181,-6.8755,-6.7061,-4.3657,4.3656,0.1935
P1J,J,120243,0.0000,0.3085,0.8444,1.0000,0.7900,14.3923,-5.1355,-7.2138,-4.3657,4.3656,-1.2911
P1J,J,120263,0.0000,0.3029,0.8334,1.0000,0.7881,16.7843,-4.2649,-6.4270,-3.6328,4.3656,-2.5799
P1J,J,120283,0.0000,0.3005,0.8687,1.0000,0.9041,16.3999,-7.2904,-4.8463,-1.6527,4.3656,-2.7979
P1J,J,120303,0.0000,0.2922,0.8360,1.0000,0.9418,15.1431,-9.4735,-3.5333,-1.1146,4.3656,-2.8940
P1J,J,120323,0.0000,0.2669,0.8391,1.0000,0.9207,11.2380,-9.9268,-3.0303,-1.4302,4.3656,-2.7809
P1J,J,120343,0.0000,0.2550,0.8391,1.0000,0.8444,9.2663,-8.2532,-2.5351,-1.4302,4.3656,-2.2607
P1J,J,120363,0.0000,0.2511,0.8341,1.0000,0.9457,9.6412,-7.6563,-2.2310,-0.4342,4.3656,-1.7014
P1J,J,120383,0.0000,0.2416,0.8303,1.0000,0.9241,9.1268,-10.4489,-2.5333,0.0759,4.3084,-1.7147
P1J,J,120403,0.0000,0.2281,0.8387,1.0000,0.9555,7.4910,-10.3177,-3.0896,-0.4557,3.7631,-1.8534
P1J,J,120423,0.0000,0.2222,0.8110,1.0000,0.8688,7.6551,-8.8724,-3.0123,-0.5938,3.7824,-2.3004
P1J,J,120443,0.0000,0.2150,0.8250,0.9969,0.8409,8.0952,-8.8981,-3.5722,-0.3804,3.6720,-2.9362
P1J,J,120463,0.0000,0.2032,0.8212,1.0000,0.8884,8.1401,-9.3921,-3.3434,-0.4311,3.3079,-2.8721
P1J,J,120483,0.0000,0.1988,0.8159,1.0000,0.8145,6.6468,-8.4538,-3.4967,-0.3667,2.5247,-2.0206
P1J,J,120503,0.0000,0.1814,0.8193,0.9912,0.7822,6.2414,-8.6059,-3.0435,-0.3174,2.0504,-2.0967
P1J,J,120523,0.0000,0.1715,0.8235,1.0000,0.8311,5.7229,-8.6269,-2.5639,-0.3331,1.5412,-1.8519
P1J,J,120543,0.0000,0.1683,0.8197,0.9972,0.8057,4.2434,-8.5388,-2.7525,-0.3337,1.3678,-1.4216
P1J,J,120563,0.0000,0.1580,0.8007,0.9799,0.7753,4.7505,-8.1796,-2.5190,-0.3681,1.0424,-0.9796
P1J,J,120583,0.0000,0.1560,0.8083,0.9833,0.8272,4.1021,-7.4976,-2.1681,-0.2793,0.4515,-0.5565
P1J,J,120603,0.0000,0.1553,0.7969,1.0000,0.8771,2.8028,-7.9395,-2.2956,-0.2637,0.1483,-0.4206
P1J,J,120623,0.0000,0.1537,0.7912,1.0000,0.7469,3.2926,-7.1815,-2.0974,-0.2419,0.1168,-0.0488
P1J,J,120643,0.0000,0.1489,0.8113,0.9927,0.8052,4.0164,-6.9749,-1.8957,-0.0989,-0.2834,0.0785
P1J,J,120663,0.0000,0.1513,0.8091,1.0000,0.8850,3.9847,-6.9683,-1.9196,-0.0642,-0.7646,0.1701
P1J,J,120683,0.0000,0.1457,0.8037,0.9939,0.8213,4.4080,-7.3066,-1.9364,-0.0795,-1.2926,0.1885
P1J,J,120703,0.0000,0.1553,0.8121,1.0000,0.8556,6.1594,-7.2312,-2.0705,-0.0016,-2.1874,0.1629
P1J,J,120723,0.0000,0.1545,0.8117,1.0000,0.7802,6.7605,-7.4551,-2.4160,0.1982,-3.7590,0.0713
P1J,J,120743,0.0000,0.1553,0.8307,0.9698,0.8708,7.1749,-7.5455,-3.1159,0.4792,-4.3657,0.1156
P1J,J,120763,0.0000,0.1560,0.8284,1.0000,0.8507,7.3982,-8.5400,-4.1218,0.5701,-4.3657,0.0803
P1J,J,120783,0.0000,0.1596,0.8299,1.0000,0.8879,7.8802,-9.3436,-5.3337,0.3790,-4.3657,0.0478
P1J,J,120803,0.0000,0.1651,0.8178,1.0000,0.7915,8.1820,-10.7009,-6.5558,-0.1767,-4.3657,-0.0119
P1J,J,120823,0.0058,0.1679,0.8379,1.0000,0.8752,7.3719,-11.0105,-7.1455,-0.8303,-4.3657,-0.2285
P1J,J,120843,0.0115,0.1679,0.8615,1.0000,0.7665,6.1456,-11.2249,-7.0593,-1.4466,-4.3657,-0.5504
P1J,J,120863,0.0136,0.1703,0.8539,1.0000,0.7548,4.2200,-10.5423,-6.2767,-1.8652,-4.3657,-0.9719
P1J,J,120883,0.0129,0.1746,0.8406,1.0000,0.7518,1.7550,-9.4765,-4.4667,-1.6108,-4.3657,-1.6626
P1J,J,120903,0.0119,0.1762,0.8447,1.0000,0.7386,-1.3855,-9.3280,-2.1986,-0.8827,-4.3657,-2.1653
P1J,J,120923,0.0086,0.1727,0.8531,1.0000,0.8067,-5.1601,-10.1184,-0.0335,-0.1363,-4.3657,-2.4928
P1J,J,120943,0.0076,0.1695,0.8603,1.0000,0.8174,-8.1532,-11.2213,1.5160,0.0312,-4.3657,-2.8619
P1J,J,120963,0.0000,0.1640,0.8372,1.0000,0.7964,-9.1460,-11.3919,2.2579,-0.1404,-4.3657,-2.9695
P1J,J,120983,0.0000,0.1568,0.8284,1.0000,0.8091,-6.4546,-10.8800,2.5094,-0.4085,-2.6224,-2.7415
P1J,J,121003,0.0000,0.1592,0.8125,1.0000,0.7523,-3.8859,-9.7399,2.2896,-0.4851,-2.3160,-2.4981
P1J,J,121023,0.0000,0.1473,0.8296,1.0000,0.8277,-4.0105,-8.2484,1.9028,-0.2633,-2.9409,-2.7503
P1J,J,121043,0.0000,0.1454,0.8307,1.0000,0.7127,-5.0469,-7.4790,1.4849,0.0983,-3.3477,-3.0906
P1J,J,121063,0.0000,0.1327,0.8318,1.0000,0.8125,-6.3246,-7.4054,1.0346,0.3251,-3.2880,-3.1400
P1J,J,121083,0.0000,0.1141,0.8296,1.0000,0.8341,-7.0689,-6.7384,0.4024,0.4607,-2.9179,-3.1147
P1J,J,121103,0.0000,0.1034,0.8140,0.9999,0.8830,-7.3946,-6.8114,-0.2257,0.4354,-2.6308,-3.0009
P1J,J,121123,0.0000,0.0959,0.8265,1.0000,0.8576,-7.7946,-6.5492,-0.8101,0.0165,-2.4143,-3.0218
P1J,J,121143,0.0000,0.0943,0.8239,1.0000,0.8404,-8.1694,-5.3613,-1.1556,-0.5121,-2.1835,-2.7775
P1J,J,121163,0.0000,0.0939,0.8254,0.9987,0.7734,-8.4089,-3.1890,-0.8263,-0.6023,-1.9044,-2.5755
P1J,J,121183,0.0000,0.0891,0.8178,1.0000,0.7347,-8.5323,-2.6740,-0.6981,-0.4622,-1.5792,-2.3487
P1J,J,121203,0.0000,0.0852,0.8132,1.0000,0.8346,-8.4682,-3.1626,-0.0353,-0.4430,-1.5322,-1.8566
P1J,J,121223,0.0000,0.0935,0.8075,0.9923,0.7327,-9.5304,-2.9399,-0.3533,-0.9108,-1.4397,-1.5294
P1J,J,121243,0.0000,0.0998,0.8258,1.0000,0.8399,-9.7567,-1.4089,-0.1341,-1.0248,-1.1013,-0.8823
P1J,J,121263,0.0000,0.1149,0.8315,1.0000,0.8590,-9.2939,-1.1879,0.2413,-0.8848,-0.6198,-0.4357
P1J,J,121283,0.0000,0.1327,0.8227,1.0000,0.8448,-9.4735,-1.5154,0.2108,-0.8399,-0.3764,0.2701
P1J,J,121303,0.0000,0.1727,0.8220,0.9972,0.8155,-9.7675,-2.6663,-0.5191,-1.1698,-0.0048,1.2025
P1J,J,121323,0.0000,0.2123,0.8269,1.0000,0.8414,-10.2136,-3.3590,-1.4831,-2.0270,0.7065,2.5720
P1J,J,121343,0.0000,0.2340,0.8273,0.9965,0.8453,-10.1297,-3.2716,-2.4806,-3.2873,1.4945,4.1903
P1J,J,121363,0.0000,0.2178,0.8250,1.0000,0.8473,-8.8280,-1.5843,-2.5375,-4.2290,2.2159,4.3656
P1J,J,121383,0.0000,0.1960,0.8459,1.0000,0.8850,-9.2130,-0.9215,-2.5806,-4.3497,3.0782,4.3656
P1J,J,121403,0.0000,0.1794,0.8258,1.0000,0.7900,-7.7593,-2.1052,-2.1046,-3.9506,4.3656,4.3656
P1J,J,121423,0.0000,0.1743,0.8349,1.0000,0.7616,-3.7763,-3.7296,-1.3029,-3.5823,4.3656,4.0402
P1J,J,121443,0.0000,0.1743,0.8470,1.0000,0.8194,-4.3877,-4.5853,-0.4922,-3.3321,4.3656,3.4964
P1J,J,121463,0.0000,0.1750,0.8501,1.0000,0.7636,-1.1197,-6.1229,0.2084,-3.2351,4.3656,2.5109
P1J,J,121483,0.0000,0.1782,0.8569,1.0000,0.8458,-0.7574,-6.4522,1.4969,-3.1970,4.3656,1.8551
P1J,J,121503,0.0000,0.1746,0.8474,1.0000,0.7837,-1.7927,-6.7324,1.3496,-3.8079,4.3656,1.2289
P1J,J,121523,0.0000,0.1655,0.8603,1.0000,0.7817,0.4586,-7.5335,0.8448,-4.3657,4.3656,0.3088
P1J,J,121543,0.0000,0.1580,0.8542,1.0000,0.8375,5.1391,-6.1043,0.2114,-4.3657,4.3656,-0.8471
P1J,J,121563,0.0000,0.1473,0.8615,1.0000,0.8502,9.2813,-5.1852,-0.5227,-4.3657,4.3656,-1.8876
P1J,J,121583,0.0000,0.1362,0.8489,1.0000,0.8551,14.2126,-4.5188,-1.0520,-4.3135,4.3656,-2.9629
P1J,J,121603,0.0000,0.1248,0.8444,1.0000,0.7890,16.8190,-5.3954,-0.5185,-3.1405,4.3656,-3.6412
P1J,J,121623,0.0000,0.1244,0.8573,1.0000,0.8683,17.8285,-5.4714,-0.2305,-1.9979,4.3656,-3.9306
P1J,J,121643,0.0000,0.1264,0.8318,1.0000,0.9437,19.0009,-5.6475,0.6640,-0.8346,4.3656,-4.0634
P1J,J,121663,0.0000,0.1228,0.8277,1.0000,0.8600,17.8447,-7.6192,0.8077,-0.0240,4.3656,-4.3657
P1J,J,121683,0.0000,0.1180,0.8254,1.0000,0.8659,15.0156,-9.1178,-0.3742,-0.1903,4.3656,-4.3657
P1J,J,121703,0.0000,0.1133,0.8197,1.0000,0.8590,12.8768,-7.9820,-1.3975,-0.3571,4.3656,-4.3657
P1J,J,121723,0.0000,0.0939,0.8265,1.0000,0.8767,11.3787,-8.8556,-1.6154,-0.3456,4.3656,-4.3657
P1J,J,121743,0.0000,0.0713,0.8288,1.0000,0.7611,10.1567,-9.1933,-1.6741,-0.4437,4.3656,-4.3657
P1J,J,121763,0.0000,0.0559,0.8246,1.0000,0.8032,8.3478,-7.5102,-2.0998,-0.3400,3.7518,-3.6090
P1J,J,121783,0.0000,0.0555,0.8166,1.0000,0.8537,6.2450,-7.9646,-1.3933,-0.2020,2.7991,-3.2957
P1J,J,121803,0.0000,0.0539,0.8147,1.0000,0.7817,2.6160,-7.8623,-1.6256,-0.2706,2.7085,-2.9948
P1J,J,121823,0.0000,0.0535,0.8174,0.9987,0.8062,3.2117,-7.2587,-1.4783,-0.4598,2.7323,-2.3005
P1J,J,121843,0.0000,0.0484,0.8121,0.9969,0.7773,4.7667,-6.1917,-0.3413,-0.1817,1.7479,-1.3747
P1J,J,121863,0.0000,0.0495,0.8045,1.0000,0.8688,3.1207,-7.0276,0.0814,0.1572,0.5585,-0.8536
P1J,J,121883,0.0000,0.0495,0.8083,1.0000,0.8855,1.8052,-7.6754,0.3245,0.0228,0.2555,-0.4704
P1J,J,121903,0.0000,0.0484,0.7980,1.0000,0.8507,2.8944,-6.7941,0.6311,-0.0145,0.2759,0.0008
P1J,J,121923,0.0000,0.0468,0.8087,0.9995,0.7993,4.0925,-6.5510,0.5077,0.2773,-0.0787,0.4415
P1J,J,121943,0.0000,0.0472,0.8072,1.0000,0.9261,4.4685,-6.5360,-0.0359,0.6538,-0.5994,0.6213
P1J,J,121963,0.0000,0.0480,0.8261,0.9890,0.8008,4.9230,-6.9659,-0.6526,0.8037,-0.9184,0.6852
P1J,J,121983,0.0000,0.0515,0.8110,1.0000,0.8840,6.4785,-6.9234,-1.2616,0.8763,-1.5700,0.7654
P1J,J,122003,0.0000,0.0511,0.8117,0.9803,0.7763,8.2957,-6.7019,-2.1322,1.0026,-2.9914,0.7488
P1J,J,122023,0.0000,0.0563,0.8144,0.9788,0.8669,9.8723,-6.7959,-3.1411,1.2453,-4.3657,0.7858
P1J,J,122043,0.0000,0.0590,0.8174,0.9867,0.7900,10.6824,-7.9341,-4.6218,1.4129,-4.3657,0.8957
P1J,J,122063,0.0000,0.0638,0.8246,1.0000,0.8018,12.2284,-9.7118,-6.3510,1.0762,-4.3657,0.8295
P1J,J,122083,0.0000,0.0689,0.8250,1.0000,0.8140,15.1659,-10.7902,-8.1006,0.2602,-4.3657,0.4054
P1J,J,122103,0.0000,0.0725,0.8261,1.0000,0.8869,13.9019,-10.2381,-9.9633,-0.3882,-4.3657,-0.4257
P1J,J,122123,0.0000,0.0784,0.8311,1.0000,0.7827,9.4112,-8.2874,-11.1321,-0.2256,-4.3657,-1.7403
P1J,J,122143,0.0000,0.0963,0.8303,1.0000,0.8634,2.4417,-8.2203,-9.1729,0.9367,-4.3657,-3.4759
P1J,J,122163,0.0000,0.1165,0.8273,1.0000,0.8801,-3.2357,-9.5292,-7.3737,1.4011,-4.3657,-4.2806
P1J,J,122183,0.0000,0.1988,0.8387,1.0000,0.8370,-13.2451,-13.2439,-3.2027,0.9693,-4.3657,-4.3657
P1J,J,122203,0.0000,0.3089,0.8166,1.0000,0.8825,-19.6200,-14.8719,0.9011,-0.7384,-4.3657,-4.3657
P1J,J,122223,0.0000,0.3116,0.8147,1.0000,0.8267,-9.9842,-11.8643,3.0734,-2.0555,-0.0769,-3.4231
P1J,J,122243,0.0000,0.2942,0.8155,1.0000,0.8561,1.7358,-7.1186,5.9007,-1.1230,-0.6600,-1.8401
P1J,J,122263,0.0000,0.2906,0.8018,1.0000,0.8874,-0.2635,-7.4186,4.0458,-0.0905,-3.3879,-2.6013
P1J,J,122283,0.0000,0.2756,0.8056,0.9980,0.8302,-5.3828,-7.0168,1.8867,0.5284,-4.3657,-3.4199
P1J,J,122303,0.0000,0.2942,0.8094,1.0000,0.9261,-8.2562,-7.0264,0.7191,0.7625,-3.8618,-3.5316
P1J,J,122323,0.0000,0.3053,0.8140,1.0000,0.8248,-8.2610,-6.8659,0.4018,0.5673,-2.9204,-3.2594
P1J,J,122343,0.0000,0.3025,0.8049,1.0000,0.9251,-7.5090,-5.8726,0.8466,0.2982,-2.4894,-3.0895
P1J,J,122363,0.0000,0.3025,0.7980,0.9954,0.9163,-7.5653,-4.7817,0.7155,0.1244,-2.5121,-2.9613
P1J,J,122383,0.0000,0.2895,0.7965,1.0000,0.9330,-8.5442,-4.2080,0.6029,-0.1001,-2.5111,-2.8594
P1J,J,122403,0.0000,0.2831,0.7999,1.0000,0.9476,-9.1873,-3.1770,0.3191,-0.2906,-2.5183,-2.5321
P1J,J,122423,0.0000,0.2859,0.7908,1.0000,0.8453,-10.7530,-3.1441,-0.3305,-0.5291,-2.3954,-1.8415
P1J,J,122443,0.0000,0.2851,0.8129,1.0000,0.9055,-10.6034,-2.4303,-0.3155,-0.6560,-1.9478,-1.1462
P1J,J,122463,0.0000,0.3089,0.7999,1.0000,0.9423,-10.2453,-2.5375,-0.7371,-0.9248,-1.7115,-0.5977
P1J,J,122483,0.0000,0.3294,0.8132,0.9950,0.8458,-9.2484,-2.6974,-1.4580,-1.1666,-1.7560,0.0245
P1J,J,122503,0.0000,0.3358,0.7908,1.0000,0.7871,-8.8334,-3.1291,-1.8382,-1.6225,-1.8655,0.8035
P1J,J,122523,0.0000,0.3283,0.8106,0.9897,0.8072,-9.3561,-3.1489,-2.3393,-2.1942,-1.7782,1.7954
P1J,J,122543,0.0000,0.3251,0.8307,0.9878,0.8864,-9.0711,-4.0398,-2.6447,-2.9708,-1.0291,2.4187
P1J,J,122563,0.0000,0.3235,0.8174,0.9987,0.8532,-7.6868,-3.9290,-3.2141,-3.9831,-0.1901,2.9323
P1J,J,122583,0.0000,0.3286,0.8182,1.0000,0.8909,-6.4540,-3.5362,-3.2704,-4.3657,0.3230,3.5168
P1J,J,122603,0.0000,0.3283,0.8174,1.0000,0.8517,-6.0911,-3.3363,-2.8836,-4.3657,0.9358,3.8216
P1J,J,122623,0.0000,0.3251,0.8170,1.0000,0.8106,-5.8750,-3.5410,-2.4639,-4.3657,1.9159,3.4180
P1J,J,122643,0.0000,0.3267,0.8375,1.0000,0.8923,-5.2140,-3.4213,-1.6160,-4.3657,3.3225,2.6338
P1J,J,122663,0.0000,0.3346,0.8637,1.0000,0.7998,-4.5625,-4.9361,-0.7886,-4.2823,4.3656,1.2044
P1J,J,122683,0.0000,0.3239,0.8827,1.0000,0.8262,-5.1798,-5.7846,-0.4239,-3.8483,4.3656,-0.2807
P1J,J,122703,0.0000,0.3025,0.8713,1.0000,0.8116,-3.9608,-7.4150,-0.3173,-3.9586,4.3656,-1.3897
P1J,J,122723,0.0000,0.2847,0.8827,1.0000,0.8429,1.5897,-8.5143,-0.9784,-4.3657,4.3656,-2.1675
P1J,J,122743,0.0000,0.2744,0.8877,1.0000,0.8140,2.1531,-7.1449,-0.9933,-4.3657,4.3656,-2.9837
P1J,J,122763,0.0000,0.2518,0.9101,1.0000,0.8081,4.5930,-5.0463,-0.1683,-4.3657,4.3656,-3.5277
P1J,J,122783,0.0000,0.2471,0.8835,1.0000,0.8243,10.4890,-3.2734,1.6011,-4.3657,4.3656,-4.1146
P1J,J,122803,0.0000,0.2404,0.8987,1.0000,0.8302,13.4636,-1.9807,4.0212,-3.5835,4.3656,-4.2521
P1J,J,122823,0.0000,0.2309,0.8801,1.0000,0.8341,13.3199,-1.7160,5.3541,-1.5933,4.3656,-3.8044
P1J,J,122843,0.0000,0.2190,0.8926,1.0000,0.8718,11.8967,-3.1854,5.0361,-0.2350,4.3656,-2.5692
P1J,J,122863,0.0000,0.2024,0.9036,1.0000,0.8399,11.7955,-3.8608,5.1122,0.5927,4.3656,-2.3703
P1J,J,122883,0.0000,0.1964,0.8899,1.0000,0.8062,13.4480,-5.2301,4.5314,0.8924,4.3656,-2.4976
P1J,J,122903,0.0000,0.1861,0.8778,1.0000,0.8258,13.7905,-5.1816,2.8650,1.0718,4.3656,-3.0490
P1J,J,122923,0.0000,0.1810,0.8770,1.0000,0.8850,12.2673,-5.2828,0.4934,1.1044,4.3656,-2.8849
P1J,J,122943,0.0000,0.1881,0.8770,1.0000,0.9447,12.6212,-6.6432,-0.7916,1.0617,4.3656,-2.8767
P1J,J,122963,0.0000,0.1818,0.8702,1.0000,0.9217,12.4661,-7.5856,-2.0028,0.6285,4.3656,-3.1673
P1J,J,122983,0.0000,0.1794,0.8599,1.0000,0.9158,11.9649,-6.6234,-2.7273,0.1601,4.3151,-3.5490
P1J,J,123003,0.0000,0.1770,0.8690,0.9972,0.8869,10.4992,-5.8492,-2.9387,0.1984,3.8495,-4.0893
P1J,J,123023,0.0000,0.1770,0.8565,0.9946,0.8072,9.6334,-5.5894,-2.6423,0.6115,3.3396,-3.9166
P1J,J,123043,0.0000,0.1743,0.8565,1.0000,0.8067,6.9869,-7.5407,-2.8914,0.3580,2.5087,-3.0446
P1J,J,123063,0.0000,0.1750,0.8561,0.9901,0.9119,5.6175,-6.9108,-2.6435,-0.0321,2.5027,-2.9508
P1J,J,123083,0.0000,0.1703,0.8478,0.9965,0.8962,5.3642,-6.4911,-2.3435,-0.1268,2.2844,-2.6878
P1J,J,123103,0.0000,0.1723,0.8425,1.0000,0.9305,4.1853,-6.5157,-2.0861,-0.0244,1.6858,-1.9179
P1J,J,123123,0.0000,0.1739,0.8406,0.9795,0.8879,4.4781,-6.7599,-1.7106,0.1502,0.9962,-1.1960
P1J,J,123143,0.0000,0.1679,0.8394,0.9852,0.9158,3.4321,-7.4623,-1.6747,0.2790,0.1800,-0.7193
P1J,J,123163,0.0000,0.1735,0.8326,0.9807,0.7930,2.8100,-7.6479,-1.7885,0.1636,0.0538,-0.3913
P1J,J,123183,0.0000,0.1739,0.8561,0.9916,0.8062,3.6758,-7.3497,-1.8352,0.1015,-0.0205,0.1218
P1J,J,123203,0.0000,0.1707,0.8239,0.9890,0.8864,5.1930,-6.8653,-1.9573,0.1833,-0.3452,0.4974
P1J,J,123223,0.0000,0.1735,0.8341,0.9581,0.9016,5.5588,-7.0096,-2.2573,0.4124,-0.9330,0.5396
P1J,J,123243,0.0000,0.1707,0.8292,0.9984,0.8566,5.6876,-7.1803,-2.5998,0.5319,-1.3823,0.5212
P1J,J,123263,0.0000,0.1711,0.8459,0.9690,0.9095,6.3312,-6.9048,-2.8010,0.6002,-1.7260,0.6115
P1J,J,123283,0.0000,0.1735,0.8459,0.9939,0.9026,8.4598,-6.4450,-2.8674,0.7869,-2.6203,0.6711
P1J,J,123303,0.0000,0.1762,0.8364,0.9841,0.7993,9.8489,-7.0773,-3.3393,0.8764,-4.3657,0.5694
P1J,J,123323,0.0000,0.1778,0.8440,0.9856,0.8120,10.6363,-8.4377,-4.2003,0.4986,-4.3657,0.5063
P1J,J,123343,0.0000,0.1853,0.8523,0.9871,0.8502,11.2063,-9.5765,-4.8972,-0.4129,-4.3657,0.4907
P1J,J,123363,0.0000,0.1909,0.8516,1.0000,0.9124,12.3894,-9.4412,-5.4642,-1.4663,-4.3657,0.5400
P1J,J,123383,0.0000,0.1877,0.8485,1.0000,0.7587,11.8314,-8.8819,-5.9642,-2.2593,-4.3657,0.5111
P1J,J,123403,0.0000,0.1929,0.8440,1.0000,0.7469,9.0370,-8.6269,-5.0912,-2.7354,-4.3657,0.5816
P1J,J,123423,0.0000,0.1956,0.8485,1.0000,0.8116,5.6373,-8.6065,-3.2554,-2.7438,-4.3657,0.9064
P1J,J,123443,0.0000,0.2067,0.8607,1.0000,0.8018,1.6586,-7.4461,0.0395,-1.1810,-4.3657,0.3273
P1J,J,123463,0.0000,0.2079,0.8497,1.0000,0.7567,-0.3688,-9.1430,2.7603,0.5420,-4.3657,-0.1980
P1J,J,123483,0.0000,0.2115,0.8493,1.0000,0.7856,-2.5663,-10.3621,3.5812,1.4987,-4.3657,-0.8415
P1J,J,123503,0.0000,0.2158,0.8504,1.0000,0.7445,-4.0775,-10.5656,3.8979,1.7432,-4.3657,-1.6339
P1J,J,123523,0.0000,0.2178,0.8398,1.0000,0.8292,-3.3506,-9.8777,4.5553,1.7180,-4.3657,-2.9300
P1J,J,123543,0.0000,0.2150,0.8197,1.0000,0.7093,-4.1338,-8.4939,4.3697,1.8623,-4.3657,-3.9127
P1J,J,123563,0.0000,0.2059,0.8326,1.0000,0.7318,-5.4936,-7.7138,3.5710,2.1498,-4.3657,-4.1267
P1J,J,123583,0.0000,0.2214,0.8284,1.0000,0.7974,-7.6227,-7.1413,2.2423,2.2311,-4.3407,-3.7100
P1J,J,123603,0.0000,0.2210,0.8208,1.0000,0.8473,-7.7796,-7.1216,1.4143,1.9713,-3.5254,-3.9077
P1J,J,123623,0.0000,0.2138,0.8083,0.9826,0.8326,-7.8970,-6.5031,0.3102,1.3652,-3.1068,-3.7277
P1J,J,123643,0.0000,0.2012,0.8144,0.9927,0.7802,-7.8605,-5.1038,0.0036,0.8593,-3.0040,-3.5422
P1J,J,123663,0.0000,0.1917,0.8170,1.0000,0.7895,-8.9897,-4.4248,-0.5455,0.4215,-2.6641,-3.4627
P1J,J,123683,0.0000,0.1929,0.8087,0.9954,0.8331,-10.3974,-2.5537,-0.6311,0.1851,-2.0456,-3.0337
P1J,J,123703,0.0000,0.1925,0.8136,0.9694,0.8292,-9.4969,-2.7183,-0.6413,0.1407,-1.5549,-2.2848
P1J,J,123723,0.0000,0.1905,0.8064,1.0000,0.7876,-7.9802,-2.9058,-0.7179,-0.0392,-1.5079,-1.7682
P1J,J,123743,0.0000,0.1834,0.8075,1.0000,0.8243,-8.8376,-2.6525,-1.0107,-0.4226,-1.6699,-1.6100
P1J,J,123763,0.0000,0.1723,0.8064,1.0000,0.8316,-9.4178,-1.3292,-1.3197,-0.4529,-1.1752,-1.1010
P1J,J,123783,0.0000,0.1663,0.7935,1.0000,0.7925,-8.3586,-1.3957,-1.2634,-0.3015,-0.5556,-0.6023
P1J,J,123803,0.0000,0.1667,0.7904,1.0000,0.8527,-6.6438,-0.9490,-1.0388,-0.1450,-0.3090,-0.2304
P1J,J,123823,0.0000,0.1644,0.8129,0.9641,0.8429,-6.7013,-1.3688,-1.5466,-0.0838,-0.3247,-0.0797
P1J,J,123843,0.0000,0.1648,0.8056,0.9878,0.7895,-7.0479,-1.1909,-1.8274,-0.0749,-0.1627,0.0721
P1J,J,123863,0.0000,0.1743,0.8072,0.9912,0.7783,-7.6742,-1.0700,-2.2825,-0.0112,-0.0278,0.3824
P1J,J,123883,0.0000,0.1802,0.8068,0.9957,0.7665,-8.6275,-1.4801,-2.3830,-0.0124,0.2766,0.6852
P1J,J,123903,0.0000,0.1940,0.7965,0.9931,0.7792,-9.2723,-1.9382,-2.4788,-0.1603,0.5288,1.2268
P1J,J,123923,0.0000,0.2186,0.8129,1.0000,0.8527,-10.4836,-2.8531,-2.5261,-0.5412,0.8644,2.2047
P1J,J,123943,0.0000,0.2613,0.8170,0.9972,0.8023,-12.1727,-3.4470,-2.5645,-1.2959,1.2272,3.6106
P1J,J,123963,0.0000,0.2772,0.8147,1.0000,0.8473,-12.0667,-3.1536,-2.4100,-2.2267,1.6182,4.3656
P1J,J,123983,0.0000,0.2804,0.8144,0.9905,0.8125,-11.1997,-3.3788,-1.9741,-3.0803,1.9276,4.3656
P1J,J,124003,0.0000,0.2701,0.8060,1.0000,0.9325,-12.2607,-3.3147,-2.4130,-3.8324,2.5330,4.3656
P1J,J,124023,0.0000,0.2546,0.8254,1.0000,0.8018,-10.9255,-4.2368,-2.9686,-4.3657,4.2370,4.3656
P1J,J,124043,0.0000,0.2471,0.8322,1.0000,0.8703,-6.2660,-5.1631,-2.5070,-4.3657,4.3656,4.3656
P1J,J,124063,0.0000,0.2210,0.8459,1.0000,0.8116,-3.4710,-6.0678,-1.7825,-4.3657,4.3656,4.3102
P1J,J,124083,0.0000,0.2071,0.8387,1.0000,0.7695,-3.0441,-2.7830,-1.5951,-4.3657,4.3656,3.5192
P1J,J,124103,0.0000,0.1980,0.8611,1.0000,0.7886,2.0885,-3.4812,-1.2346,-4.3657,4.3656,2.7288
P1J,J,124123,0.0000,0.1897,0.8649,1.0000,0.7602,4.6505,-3.8446,-1.2370,-4.3657,4.3656,2.0086
P1J,J,124143,0.0000,0.1707,0.8630,1.0000,0.8595,8.3538,-6.3157,-2.0681,-4.3657,4.3656,1.1731
P1J,J,124163,0.0000,0.1505,0.8649,1.0000,0.7450,9.2933,-4.1536,-3.9578,-4.3657,4.3656,-0.0432
P1J,J,124183,0.0000,0.1311,0.8652,1.0000,0.7665,15.1940,-3.7033,-4.9200,-4.3657,4.3656,-1.0652
P1J,J,124203,0.0000,0.1212,0.8539,1.0000,0.7895,17.1040,-3.7422,-4.2452,-4.3657,4.3656,-2.1224
P1J,J,124223,0.0000,0.1172,0.8470,1.0000,0.8086,19.5978,-3.0794,-2.5124,-2.9945,4.3656,-2.3164
P1J,J,124243,0.0000,0.1101,0.8463,1.0000,0.8106,19.0284,-4.5883,-2.3375,-1.4084,4.3656,-2.6838
P1J,J,124263,0.0000,0.1014,0.8447,1.0000,0.8248,19.0117,-5.7145,-2.9351,-0.6698,4.3656,-2.8882
P1J,J,124283,0.0000,0.0975,0.8447,1.0000,0.9002,18.0129,-6.4564,-2.8686,-0.3467,4.3656,-3.0759
P1J,J,124303,0.0000,0.0959,0.8326,1.0000,0.8165,15.2203,-7.0521,-3.0483,-0.4463,4.3656,-3.3069
P1J,J,124323,0.0000,0.0951,0.8322,1.0000,0.8943,12.3858,-6.5498,-3.1872,-0.4032,4.0131,-2.9830
P1J,J,124343,0.0000,0.0935,0.8288,1.0000,0.8571,10.5249,-7.3581,-3.5506,-0.4179,3.6796,-2.8503
P1J,J,124363,0.0000,0.0939,0.8242,0.9942,0.8517,10.5950,-7.0198,-3.5345,-0.2848,3.2363,-2.7808
P1J,J,124383,0.0000,0.0951,0.8201,1.0000,0.8130,8.7963,-8.2185,-3.7057,-0.6495,2.6474,-2.9800
P1J,J,124403,0.0000,0.0935,0.8269,1.0000,0.9183,7.3473,-6.9737,-3.4315,-1.1924,2.4896,-2.8843
P1J,J,124423,0.0000,0.0935,0.8197,1.0000,0.8424,6.4546,-5.3870,-2.6166,-1.0078,2.1081,-2.3562
P1J,J,124443,0.0000,0.0915,0.8189,0.9980,0.9006,4.6362,-6.2486,-2.1627,-0.5850,1.9758,-2.2288
P1J,J,124463,0.0000,0.0915,0.8121,0.9957,0.8816,4.2745,-6.0582,-1.7035,-0.4307,1.7904,-1.5315
P1J,J,124483,0.0000,0.0879,0.8102,0.9995,0.8918,3.9009,-5.4948,-1.0748,-0.3445,1.3025,-0.9663
P1J,J,124503,0.0000,0.0876,0.8159,0.9957,0.8894,4.0985,-4.9122,-0.3293,0.0723,0.6667,-0.5500
P1J,J,124523,0.0000,0.0860,0.8079,0.9935,0.9119,3.8817,-6.3606,-0.1748,0.3380,0.0237,-0.3022
P1J,J,124543,0.0000,0.0773,0.8106,0.9969,0.9183,3.0339,-6.6318,-0.2503,0.2860,-0.1768,0.0352
P1J,J,124563,0.0000,0.0907,0.8185,0.9773,0.8042,4.0829,-6.0139,-0.5940,0.3432,-0.1367,0.3970
P1J,J,124583,0.0000,0.0745,0.8094,0.9923,0.9212,5.4235,-5.9893,-1.2203,0.4386,-0.3805,0.6055
P1J,J,124603,0.0000,0.0876,0.8049,0.9991,0.9065,6.0690,-5.7816,-1.8298,0.6480,-0.7847,0.4739
P1J,J,124623,0.0000,0.0848,0.8068,1.0000,0.8634,5.4121,-5.9456,-2.4938,0.8124,-1.0644,0.4278
P1J,J,124643,0.0000,0.0879,0.8068,0.9972,0.9197,5.9618,-5.8780,-2.8722,0.9569,-1.1470,0.5887
P1J,J,124663,0.0000,0.0955,0.8056,0.9961,0.8953,7.9054,-5.4505,-3.1099,1.1778,-1.8903,0.7667
P1J,J,124683,0.0000,0.1077,0.8060,0.9923,0.8179,10.2064,-6.2642,-3.6662,1.3483,-3.6387,0.7910
P1J,J,124703,0.0000,0.1089,0.8064,0.9942,0.9173,11.6338,-7.8299,-4.7715,1.0949,-4.3657,0.5794
P1J,J,124723,0.0000,0.1109,0.8083,1.0000,0.8287,12.2038,-8.8454,-5.8989,0.3746,-4.3657,0.3505
P1J,J,124743,0.0000,0.1149,0.8273,1.0000,0.7788,12.7696,-8.9208,-6.4887,-0.3549,-4.3657,0.2615
P1J,J,124763,0.0000,0.1093,0.8652,1.0000,0.8727,13.3433,-8.7538,-6.3378,-0.9928,-4.3657,0.1986
P1J,J,124783,0.0000,0.1077,0.8349,1.0000,0.8355,12.9846,-8.4149,-5.6313,-1.4425,-4.3657,0.1223
P1J,J,124803,0.0000,0.1105,0.8280,1.0000,0.8262,10.7087,-8.5137,-4.2673,-1.5768,-4.3657,0.0747
P1J,J,124823,0.0000,0.1153,0.8269,1.0000,0.8375,6.7893,-6.9360,-2.3399,-0.5151,-4.3657,-0.7534
P1J,J,124843,0.0000,0.1168,0.8254,1.0000,0.7675,3.6326,-8.6604,-0.0240,0.6628,-4.3657,-1.4529
P1J,J,124863,0.0000,0.1085,0.8444,1.0000,0.8439,-2.6208,-9.7621,1.0634,0.8903,-4.3657,-1.5358
P1J,J,124883,0.0000,0.1050,0.8368,1.0000,0.8243,-6.4827,-10.1950,2.6363,0.7625,-4.3657,-1.3097
P1J,J,124903,0.0000,0.1054,0.8307,1.0000,0.7440,-8.6119,-10.3507,3.8081,0.5393,-4.3657,-1.3510
P1J,J,124923,0.0000,0.0955,0.8417,1.0000,0.8209,-8.0245,-9.4046,4.4811,0.3778,-4.3657,-1.5672
P1J,J,124943,0.0000,0.0907,0.8132,1.0000,0.8135,-5.4517,-8.1317,5.0032,0.7366,-4.0092,-2.1021
P1J,J,124963,0.0000,0.0713,0.8242,1.0000,0.8052,-3.0453,-7.9497,4.5709,1.2052,-3.7822,-3.0122
P1J,J,124983,0.0000,0.0563,0.8227,1.0000,0.8590,-3.6057,-7.0539,3.1315,1.5569,-4.3657,-3.8179
P1J,J,125003,0.0000,0.0448,0.8197,1.0000,0.8341,-6.1486,-6.3037,1.8094,2.0524,-4.3657,-4.0003
P1J,J,125023,0.0000,0.0373,0.8132,1.0000,0.8497,-9.0789,-7.7168,0.4670,2.0266,-4.3295,-3.9119
P1J,J,125043,0.0000,0.0203,0.8208,1.0000,0.8287,-9.7920,-8.1149,-0.2203,1.2155,-3.1970,-3.4101
P1J,J,125063,0.0000,0.0072,0.8163,1.0000,0.7827,-7.5395,-6.5851,0.4700,0.5045,-2.2386,-2.7629
P1J,J,125083,0.0000,0.0000,0.8208,1.0000,0.8404,-5.9870,-5.2205,0.8886,0.2766,-1.8325,-2.3514
P1J,J,125103,0.0000,0.0000,0.8094,1.0000,0.8933,-6.5761,-3.9913,0.9754,0.4584,-1.6246,-2.1043
P1J,J,125123,0.0000,0.0000,0.8018,0.9905,0.7205,-6.8683,-4.4428,1.0155,0.4850,-1.6197,-1.8390
P1J,J,125143,0.0000,0.0000,0.8041,1.0000,0.8747,-7.9754,-3.4363,0.5892,0.4696,-1.5255,-1.5087
P1J,J,125163,0.0000,0.0000,0.8041,0.9957,0.7562,-8.2017,-2.9770,-0.1611,0.5709,-1.0225,-1.1010
P1J,J,125183,0.0000,0.0000,0.8041,0.9777,0.8125,-7.6970,-2.1621,-0.1736,0.7208,-0.5461,-0.7273
P1J,J,125203,0.0000,0.0000,0.7889,1.0000,0.8556,-7.2910,-2.4693,-0.9041,0.9116,-0.2356,-0.4145
P1J,J,125223,0.0000,0.0000,0.8246,0.9867,0.8169,-6.4450,-2.4435,-1.5538,0.7707,-0.0562,-0.2899
P1J,J,125243,0.0000,0.0000,0.7965,1.0000,0.7626,-6.5067,-2.0088,-1.9621,0.6193,-0.0147,-0.1867
P1J,J,125263,0.0000,0.0000,0.7992,1.0000,0.8801,-7.4820,-1.1849,-2.6279,0.6166,-0.0176,-0.0199
P1J,J,125283,0.0000,0.0175,0.7969,0.9957,0.8140,-8.1257,-2.1076,-3.3518,0.5219,0.3616,0.0795
P1J,J,125303,0.0000,0.0670,0.7969,0.9897,0.8585,-8.4790,-1.5190,-3.5362,0.0842,0.7000,0.1524
P1J,J,125323,0.0000,0.1034,0.7992,0.9950,0.7993,-9.4352,-1.3831,-3.0566,-0.1643,0.8835,0.4290
P1J,J,125343,0.0000,0.1960,0.7961,0.9671,0.9011,-10.9416,-2.2310,-2.8064,-0.5545,1.4137,0.9137
P1J,J,125363,0.0000,0.3108,0.8053,1.0000,0.8820,-11.8051,-2.8872,-2.5597,-1.2889,2.2274,1.7496
P1J,J,125383,0.0000,0.3659,0.8045,0.9871,0.7979,-11.0937,-3.3081,-1.8519,-2.2779,2.6974,2.9168
P1J,J,125403,0.0000,0.3837,0.7980,0.9972,0.7425,-12.0302,-2.8764,-1.4400,-3.2992,3.2054,4.3365
P1J,J,125423,0.0000,0.4165,0.8060,1.0000,0.8791,-12.8134,-2.5381,-1.4173,-4.1756,4.3656,4.3656
P1J,J,125443,0.0000,0.4078,0.8106,1.0000,0.8360,-11.0045,-2.4681,-2.2813,-4.3657,4.3656,4.3656
P1J,J,125463,0.0000,0.3789,0.7965,1.0000,0.8708,-7.7215,-2.2310,-2.7680,-4.3657,4.3656,4.3656
P1J,J,125483,0.0000,0.3457,0.8022,1.0000,0.8419,-4.6266,-2.4321,-2.4004,-4.3657,4.3656,4.2218
P1J,J,125503,0.0000,0.3176,0.8250,1.0000,0.8253,-0.1479,-1.6490,-1.4268,-4.3657,4.3656,2.0101
P1J,J,125523,0.0000,0.3065,0.8334,1.0000,0.7616,3.7985,-2.2974,-0.6251,-4.3657,4.3656,1.2486
P1J,J,125543,0.0000,0.3085,0.8489,1.0000,0.7724,7.1024,-4.0991,-1.3400,-4.2593,4.3656,0.9451
P1J,J,125563,0.0000,0.3041,0.8273,1.0000,0.7489,10.5968,-3.3572,0.0796,-4.3657,4.3656,0.5311
P1J,J,125583,0.0000,0.2942,0.8550,1.0000,0.7724,10.3303,-1.4735,-0.0419,-4.1632,4.3656,-0.3619
P1J,J,125603,0.0000,0.2744,0.8421,1.0000,0.7979,13.8492,-1.1406,-1.0778,-2.7881,4.3656,-0.6702
P1J,J,125623,0.0000,0.2558,0.8375,1.0000,0.7455,15.7652,-2.7561,-1.5148,-1.9766,4.3656,-0.9931
P1J,J,125643,0.0000,0.2400,0.8341,1.0000,0.8287,18.3692,-4.0135,-1.0855,-1.8960,4.3656,-1.1197
P1J,J,125663,0.0000,0.2360,0.8383,1.0000,0.8541,18.7273,-3.6237,-1.6873,-1.9714,4.3656,-1.9161
P1J,J,125683,0.0000,0.2285,0.8444,1.0000,0.8390,18.2315,-2.8405,-2.2914,-1.5564,4.3656,-2.8017
P1J,J,125703,0.0000,0.2218,0.8231,1.0000,0.7773,17.9135,-4.0530,-2.4106,-0.8579,4.3656,-3.7802
P1J,J,125723,0.0000,0.2218,0.7984,1.0000,0.8365,17.3417,-6.1714,-2.1705,-0.7962,4.3656,-4.2761
P1J,J,125743,0.0000,0.2289,0.8174,1.0000,0.7846,15.6928,-6.0965,-2.4723,-1.1763,3.6758,-4.3006
P1J,J,125763,0.0000,0.2265,0.8106,1.0000,0.8463,11.7122,-5.9923,-3.1021,-1.3516,3.0541,-4.3657
P1J,J,125783,0.0000,0.2222,0.7916,1.0000,0.7734,10.1369,-4.7409,-2.8351,-1.1274,3.1742,-4.3657
P1J,J,125803,0.0000,0.2214,0.8041,0.9950,0.7719,9.5172,-5.9385,-2.3597,-0.7670,2.6193,-4.0132
P1J,J,125823,0.0000,0.2087,0.8151,1.0000,0.7886,6.1786,-7.3318,-2.5291,-0.8315,2.4464,-3.7804
P1J,J,125843,0.0000,0.2032,0.8098,0.9807,0.7890,4.5170,-6.8629,-2.9980,-1.0792,3.0780,-3.1028
P1J,J,125863,0.0000,0.2047,0.8007,1.0000,0.8444,7.1084,-5.9630,-2.1843,-1.0199,3.2526,-2.9588
P1J,J,125883,0.0000,0.2000,0.8098,0.9890,0.8429,7.3850,-5.6181,-1.5526,-0.4790,2.0206,-2.4634
P1J,J,125903,0.0000,0.1968,0.7965,1.0000,0.8380,4.5080,-6.6725,-1.4747,-0.0514,0.8207,-1.9540
P1J,J,125923,0.0000,0.1790,0.8064,0.9784,0.8360,1.5400,-7.6527,-1.9555,-0.1350,1.1123,-1.4659
P1J,J,125943,0.0000,0.1758,0.7874,0.9931,0.8424,4.5140,-6.1756,-1.7130,-0.1360,1.1936,-0.7108
P1J,J,125963,0.0000,0.1735,0.7969,0.9957,0.8527,5.8043,-6.1540,-1.4508,0.1989,0.0927,-0.2643
P1J,J,125983,0.0000,0.1743,0.7965,0.9856,0.8659,4.1757,-6.7528,-1.7316,0.3977,-0.8322,0.0881
P1J,J,126003,0.0000,0.1731,0.7942,0.9810,0.7890,3.4530,-7.2377,-2.1579,0.2546,-0.7671,0.2506
P1J,J,126023,0.0000,0.1758,0.7927,1.0000,0.8027,4.6338,-6.5905,-2.3830,0.0750,-0.4529,0.4796
P1J,J,126043,0.0000,0.1762,0.7901,0.9931,0.8693,6.0343,-6.2767,-2.4303,0.1015,-0.6520,0.5141
P1J,J,126063,0.0000,0.1754,0.7923,0.9588,0.8380,6.4450,-5.9468,-2.5585,0.3556,-1.2057,0.3464
P1J,J,126083,0.0000,0.1727,0.7874,0.9784,0.7734,5.4415,-6.7587,-2.5968,0.6308,-1.9148,0.3609
P1J,J,126103,0.0000,0.1762,0.7772,0.9822,0.7225,5.2104,-7.1066,-2.6202,0.6909,-2.2054,0.4278
P1J,J,126123,0.0000,0.1770,0.7863,0.9765,0.8091,6.3971,-6.7055,-2.4968,0.7566,-2.9591,0.7254
P1J,J,126143,0.0000,0.1782,0.7882,0.9822,0.7822,8.0305,-7.1958,-2.7734,0.7674,-4.3657,1.0841
P1J,J,126163,0.0000,0.1925,0.7939,0.9908,0.8155,9.0358,-8.5999,-3.3884,0.3186,-4.3657,1.5108
P1J,J,126183,0.0000,0.2146,0.7832,1.0000,0.7895,10.2094,-9.6328,-4.1386,-0.6246,-4.3657,1.9416
P1J,J,126203,0.0000,0.2218,0.8098,1.0000,0.8630,10.4297,-9.3855,-4.5074,-1.8486,-4.3657,2.2386
P1J,J,126223,0.0000,0.2226,0.8246,1.0000,0.8585,10.3537,-8.4730,-4.1248,-2.7780,-4.3657,2.4668
P1J,J,126243,0.0000,0.2261,0.8159,1.0000,0.7504,9.7938,-6.1845,-2.1968,-2.9262,-4.3657,2.4493
P1J,J,126263,0.0000,0.2313,0.8185,1.0000,0.7646,6.7635,-3.3848,1.7567,-0.7340,-4.3657,1.3209
P1J,J,126283,0.0000,0.2348,0.8273,1.0000,0.7900,4.4074,-5.1942,4.4685,2.3510,-4.3657,0.8548
P1J,J,126303,0.0000,0.2439,0.8151,1.0000,0.8032,3.4638,-9.7441,4.6290,3.6591,-4.3657,0.5215
P1J,J,126323,0.0000,0.2447,0.8083,1.0000,0.7895,0.6993,-11.3895,3.1638,3.3267,-4.3657,-0.4696
P1J,J,126343,0.0000,0.2443,0.7980,1.0000,0.7939,-3.6326,-12.1362,3.1123,2.2515,-4.3657,-1.4001
P1J,J,126363,0.0000,0.2380,0.8079,1.0000,0.8086,-6.7079,-11.2925,4.3763,1.3800,-4.3657,-2.2517
P1J,J,126383,0.0000,0.2293,0.8068,1.0000,0.7841,-7.1473,-9.8304,4.9038,1.2361,-4.3657,-2.6572
P1J,J,126403,0.0000,0.2083,0.8242,1.0000,0.8003,-5.0206,-9.5465,4.4913,1.3741,-3.5461,-2.6354
P1J,J,126423,0.0000,0.1917,0.8003,1.0000,0.8434,-3.2806,-9.5801,3.9009,1.4067,-3.0744,-2.9259
P1J,J,126443,0.0000,0.1754,0.7897,0.9886,0.8355,-2.3280,-8.2514,3.4949,1.4360,-3.4968,-3.4287
P1J,J,126463,0.0000,0.1735,0.8072,1.0000,0.9114,-4.6350,-7.3803,2.8573,1.7144,-4.0207,-3.8473
P1J,J,126483,0.0000,0.1770,0.7889,0.9980,0.8194,-6.9911,-7.3353,1.9699,1.6335,-3.7177,-4.1262
P1J,J,126503,0.0000,0.1651,0.7897,1.0000,0.9408,-8.0676,-6.5366,1.9280,1.3631,-3.2943,-3.8594
P1J,J,126523,0.0000,0.1473,0.7867,0.9758,0.8311,-9.4867,-6.7420,1.2831,1.0744,-2.6938,-3.6423
P1J,J,126543,0.0000,0.1252,0.7802,0.9795,0.9104,-9.3693,-5.6864,0.8832,0.6474,-2.2504,-3.0682
P1J,J,126563,0.0000,0.1224,0.7844,0.9875,0.8375,-9.2100,-3.1105,0.4766,0.7167,-1.8401,-2.4004
P1J,J,126583,0.0000,0.1236,0.7931,0.9558,0.8762,-8.8095,-3.6626,-0.1120,0.6935,-1.5768,-1.7180
P1J,J,126603,0.0000,0.1165,0.7741,0.9927,0.8101,-8.1203,-3.2836,-0.3305,0.2547,-1.4310,-1.3674
P1J,J,126623,0.0000,0.1228,0.7920,0.9803,0.8395,-7.8886,-1.6466,-0.8856,0.1436,-1.2380,-0.9133
P1J,J,126643,0.0000,0.1271,0.7753,0.9818,0.7954,-7.0982,-1.4005,-1.6256,0.0565,-0.8517,-0.3295
P1J,J,126663,0.0000,0.1244,0.7817,0.9818,0.9374,-6.2486,-1.0376,-2.1537,-0.0257,-0.5420,0.0179
P1J,J,126683,0.0000,0.1509,0.7718,0.9852,0.7724,-6.3270,-1.0640,-2.5818,-0.0738,-0.2485,0.3349
P1J,J,126703,0.0000,0.1754,0.7863,0.9792,0.8037,-5.7804,-1.0897,-2.9878,-0.1323,0.0645,0.6346
P1J,J,126723,0.0000,0.2004,0.7741,0.9841,0.8341,-5.5403,-1.8987,-3.5339,-0.3035,0.3228,0.8312
P1J,J,126743,0.0000,0.2194,0.7829,0.9878,0.8248,-6.6779,-2.9902,-3.9224,-0.7161,0.7635,1.1631
P1J,J,126763,0.0000,0.2475,0.7893,1.0000,0.7841,-8.1796,-3.7997,-4.0081,-1.4741,1.6824,2.0615
P1J,J,126783,0.0000,0.2823,0.7791,1.0000,0.8845,-10.1459,-3.0537,-4.0548,-2.2929,3.0129,3.4268
P1J,J,126803,0.0000,0.2863,0.7904,1.0000,0.8277,-10.4219,-1.5999,-4.0685,-2.8978,4.3656,4.3656
P1J,J,126823,0.0000,0.2772,0.7912,1.0000,0.7944,-10.8147,-0.8939,-4.0883,-3.2066,4.3656,4.3656
P1J,J,126843,0.0000,0.2681,0.7787,1.0000,0.8478,-10.2058,-2.2489,-4.4086,-3.6016,4.3656,4.3656
P1J,J,126863,0.0000,0.2645,0.8034,1.0000,0.8649,-6.9953,-4.1619,-6.2773,-4.3657,4.3656,4.3656
P1J,J,126883,0.0000,0.2590,0.7950,1.0000,0.9173,-0.0742,-3.6428,-6.4935,-4.3657,4.3656,4.3656
P1J,J,126903,0.0000,0.2495,0.8068,1.0000,0.8297,3.4369,-2.7609,-4.3835,-4.3657,4.3656,4.3656
P1J,J,126923,0.0000,0.2352,0.8041,1.0000,0.8409,6.9306,-0.1389,-3.6668,-4.3657,4.3656,3.8877
P1J,J,126943,0.0000,0.2328,0.8053,1.0000,0.8507,13.3882,1.5616,-1.9489,-4.2838,4.3656,2.8209
P1J,J,126963,0.0000,0.2344,0.8049,1.0000,0.8414,16.9891,-0.7311,-0.7017,-2.7318,4.3656,2.3301
P1J,J,126983,0.0000,0.2336,0.8087,1.0000,0.7969,16.3753,-2.5022,-1.5232,-2.1533,4.3656,1.5636
P1J,J,127003,0.0000,0.2186,0.8022,1.0000,0.8194,18.1477,-2.6016,-2.8267,-2.0182,4.3656,0.3957
P1J,J,127023,0.0000,0.2043,0.8026,1.0000,0.8478,19.6194,-1.2640,-3.3692,-1.5608,4.3656,-0.8470
P1J,J,127043,0.0000,0.1988,0.7817,1.0000,0.8434,19.6194,-2.4429,-3.5686,-0.7926,4.3656,-1.7945
P1J,J,127063,0.0000,0.1881,0.8060,1.0000,0.7886,19.6194,-5.3367,-3.8799,-0.8820,4.3656,-2.6763
P1J,J,127083,0.0000,0.1743,0.7908,0.9950,0.8174,18.3506,-5.5606,-4.2823,-1.5545,4.2662,-3.7013
P1J,J,127103,0.0000,0.1675,0.7920,0.9920,0.8262,16.5891,-3.6674,-4.0895,-1.7007,4.3656,-4.3657
P1J,J,127123,0.0000,0.1667,0.7870,1.0000,0.8302,15.8191,-4.1494,-3.3638,-1.3238,4.2427,-4.3657
P1J,J,127143,0.0000,0.1675,0.7832,0.9931,0.7851,13.3253,-4.9751,-3.0237,-1.1674,3.3329,-4.3435
P1J,J,127163,0.0000,0.1644,0.7832,0.9641,0.7641,9.5436,-5.9899,-3.3165,-1.4829,2.6632,-4.0942
P1J,J,127183,0.0000,0.1659,0.7764,1.0000,0.8399,8.6568,-4.6877,-2.4974,-1.7120,2.3802,-3.9368
P1J,J,127203,0.0000,0.1648,0.7775,1.0000,0.8737,7.1300,-4.1901,-1.3735,-1.1938,1.5479,-3.1809
P1J,J,127223,0.0000,0.1648,0.7889,0.9720,0.8723,3.8955,-5.5259,-1.1310,-0.7749,1.3109,-2.5812
P1J,J,127243,0.0000,0.1628,0.7775,1.0000,0.8351,3.8207,-5.6379,-0.7832,-0.7253,1.3940,-1.9420
P1J,J,127263,0.0000,0.1667,0.7806,0.9664,0.7920,3.8859,-5.3846,-0.3658,-0.5897,0.8355,-1.3984
P1J,J,127283,0.0000,0.1679,0.7798,0.9882,0.7979,3.2734,-4.8864,-0.1251,-0.2248,-0.1470,-0.8334
P1J,J,127303,0.0000,0.1632,0.7779,0.9731,0.8630,1.1957,-5.5277,-0.2700,0.1263,-0.8164,-0.2815
P1J,J,127323,0.0000,0.1671,0.7665,0.9897,0.8311,1.0885,-5.3978,-0.6125,0.2378,-0.6760,0.1824
P1J,J,127343,0.0000,0.1675,0.7726,0.9961,0.7337,3.0411,-5.1152,-1.1125,0.3383,-0.7821,0.6730
P1J,J,127363,0.0000,0.1644,0.7794,0.9818,0.7773,5.2283,-5.0984,-1.6957,0.4294,-1.5030,0.8202
P1J,J,127383,0.0000,0.1679,0.7760,0.9720,0.8346,7.2336,-5.2199,-2.3603,0.5542,-2.8302,0.6586
P1J,J,127403,0.0000,0.1655,0.7855,0.9769,0.8145,8.0580,-5.6672,-2.9872,0.6550,-4.3657,0.5530
P1J,J,127423,0.0000,0.1699,0.7741,1.0000,0.7029,8.0419,-6.4911,-3.3680,0.5195,-4.3657,0.5132
P1J,J,127443,0.0000,0.1731,0.7810,1.0000,0.7988,7.8233,-6.9462,-3.5201,0.1660,-4.3657,0.5036
P1J,J,127463,0.0000,0.1794,0.7654,0.9829,0.6960,7.2054,-7.2952,-3.3997,-0.3423,-4.3657,0.4517
P1J,J,127483,0.0090,0.1901,0.7612,0.9893,0.7465,6.5306,-7.4407,-3.1692,-0.9844,-4.3657,0.0454
P1J,J,127503,0.0355,0.1968,0.7384,1.0000,0.5761,5.8834,-7.4132,-2.5291,-1.5867,-4.3657,-0.1974
P1J,J,127523,0.0703,0.1992,0.7088,0.9731,0.5590,5.1673,-7.4934,-1.5849,-2.1437,-4.3657,-0.0906
P1J,J,127543,0.0843,0.2008,0.7062,0.9562,0.5874,3.7704,-7.3497,-0.8784,-2.6618,-4.3657,0.0248
P1J,J,127563,0.0964,0.2008,0.6815,0.9460,0.4454,1.1568,-6.9509,0.3263,-3.0971,-4.3657,0.6003
P1J,J,127583,0.1000,0.1996,0.6473,0.9276,0.5213,-2.4214,-7.6533,1.7382,-3.3586,-4.3657,1.2215
P1J,J,127603,0.1076,0.2158,0.6196,0.8545,0.5007,-5.1421,-6.9138,3.1878,-3.5805,-4.3657,1.4053
P1J,J,127623,0.1190,0.2324,0.5425,0.7626,0.3759,-6.9030,-4.7314,5.9408,-3.3125,-4.3657,1.2834
P1J,J,127643,0.1384,0.2645,0.4878,0.7171,0.3181,-6.0498,-2.7992,8.7233,-2.2585,-2.8951,0.8764
P1J,J,127663,0.1552,0.3009,0.4362,0.6828,0.2472,-3.7979,-2.7477,9.4992,-1.2578,-0.4385,0.8112
P1J,J,127683,0.1796,0.3318,0.4419,0.6719,0.2291,-1.3819,-3.4189,8.9939,-0.8687,1.2372,0.6951
P1J,J,127703,0.1939,0.3488,0.4457,0.6824,0.3211,1.1891,-4.2051,9.2136,-1.1499,1.9381,0.5301
P1J,J,127723,0.1975,0.3496,0.4347,0.6644,0.2393,2.6615,-3.6632,9.3172,-1.5383,1.5981,0.7103
P1J,J,127743,0.1964,0.3433,0.4248,0.6549,0.2491,3.1518,-2.9393,8.9532,-1.5465,0.6739,1.0068
P1J,J,127763,0.1914,0.3338,0.4119,0.6467,0.2849,2.3046,-3.0010,8.3071,-1.2312,-0.2189,1.0559
P1J,J,127783,0.1893,0.3160,0.3918,0.6139,0.3519,0.6293,-3.8398,7.6180,-0.9202,-0.5576,0.9547
P1J,J,127803,0.1796,0.2748,0.3295,0.5672,0.2927,-0.1784,-4.5128,7.3114,-0.9399,-0.3754,0.9875
P1J,J,127823,0.1771,0.2309,0.2687,0.4795,0.2251,0.4563,-5.0900,7.5988,-1.4290,-0.0734,1.1001
P1J,J,127843,0.1789,0.1948,0.2247,0.4369,0.2721,1.4167,-4.4853,7.8305,-2.2476,0.0195,1.2938
P1J,J,127863,0.1678,0.1723,0.1943,0.3868,0.2202,1.6951,-3.2710,9.2172,-2.9274,-0.1970,1.1775
P1J,J,127883,0.1649,0.1632,0.1632,0.3627,0.2917,1.6089,-1.1436,10.1734,-2.9103,-0.3564,0.9093
P1J,J,127903,0.1656,0.1644,0.1746,0.3315,0.2320,1.1748,-0.1629,10.6560,-2.3625,-0.3172,0.7810
P1J,J,127923,0.1627,0.1679,0.1768,0.3420,0.2854,1.2915,0.3126,10.5447,-1.6717,-0.1240,0.6274
P1J,J,127943,0.1699,0.1743,0.1833,0.3488,0.2056,1.7669,0.0551,10.8219,-1.2777,-0.0316,0.6167
P1J,J,127963,0.1749,0.1814,0.1860,0.3446,0.3005,1.5777,0.0281,10.9848,-1.3110,-0.1295,0.4679
P1J,J,127983,0.1796,0.1857,0.1886,0.3307,0.2751,1.3861,0.9640,10.9650,-1.3310,-0.1751,0.3373
P1J,J,128003,0.1843,0.1909,0.1920,0.3462,0.1899,1.7274,2.0992,11.0752,-1.1588,-0.2245,0.3567
P1J,J,128023,0.1932,0.1996,0.1981,0.3631,0.1992,1.5508,2.8273,11.1680,-0.6001,-0.2543,0.2435
P1J,J,128043,0.2036,0.1996,0.1886,0.3646,0.3054,0.7910,1.9819,11.2889,0.0064,-0.1482,-0.0302
P1J,J,128063,0.2050,0.2035,0.2122,0.3590,0.2477,1.1065,0.7880,12.7122,-0.2180,-0.0020,-0.0366
P1J,J,128083,0.2050,0.2008,0.2110,0.3533,0.2907,1.0472,0.7532,13.8714,-0.8891,0.1775,0.0665
P1J,J,128103,0.2022,0.2020,0.2201,0.3616,0.2721,1.5077,2.2208,14.0055,-1.1032,0.4277,0.1510
P1J,J,128123,0.2015,0.2016,0.2258,0.3559,0.2731,1.9633,3.2093,13.4768,-0.4108,0.3913,-0.0705
P1J,J,128143,0.2036,0.2004,0.2167,0.3239,0.3397,2.1495,2.4184,12.3823,0.4371,0.0629,-0.1296
P1J,J,128163,0.2007,0.2075,0.2239,0.3556,0.2276,1.6262,1.4975,10.6997,0.8218,-0.3335,-0.0721
P1J,J,128183,0.2029,0.2115,0.2296,0.3669,0.3382,0.8694,0.9568,9.1885,0.8672,-0.4760,-0.0509
P1J,J,128203,0.2054,0.2170,0.2315,0.3646,0.2266,0.1659,0.7359,8.2329,0.7478,-0.3051,-0.0185
P1J,J,128223,0.2111,0.2226,0.2399,0.3563,0.2932,-0.0311,0.4251,7.9251,0.5303,0.0466,0.0610
P1J,J,128243,0.2129,0.2233,0.2319,0.3842,0.3128,0.4515,0.6239,8.0784,0.3420,0.3652,0.0763
P1J,J,128263,0.2122,0.2245,0.2463,0.3544,0.2981,1.0975,0.3934,8.7604,0.1435,0.4918,0.0886
P1J,J,128283,0.2115,0.2233,0.2475,0.3770,0.3529,1.6609,0.4425,9.4082,-0.0305,0.4461,0.0588
P1J,J,128303,0.2115,0.2253,0.2520,0.3823,0.2756,2.0831,0.2479,10.0836,-0.1347,0.2585,0.0237
P1J,J,128323,0.2072,0.2277,0.2433,0.3665,0.2442,1.6795,0.3233,10.2800,-0.1427,0.1138,-0.0691
P1J,J,128343,0.2090,0.2269,0.2479,0.3736,0.2251,1.4825,0.2958,10.2986,-0.1083,0.1544,-0.1175
P1J,J,128363,0.2068,0.2285,0.2494,0.3733,0.3084,1.5262,0.5946,10.0663,-0.0033,0.2449,-0.1334
P1J,J,128383,0.2072,0.2277,0.2691,0.3462,0.2570,2.0040,0.5269,10.0387,0.0815,0.1829,-0.1402
P1J,J,128403,0.2072,0.2257,0.2509,0.3981,0.2447,1.8795,0.7760,9.8238,0.1673,0.0250,-0.1364
P1J,J,128423,0.2090,0.2229,0.2577,0.3669,0.3539,1.7951,0.6389,9.8262,0.2490,-0.0601,-0.0797
P1J,J,128443,0.2086,0.2281,0.2509,0.3657,0.1850,1.5178,0.5652,9.5950,0.2891,-0.0525,-0.0536
P1J,J,128463,0.2090,0.2305,0.2543,0.3910,0.3470,1.4777,0.3616,9.5268,0.3087,0.0200,-0.0358
P1J,J,128483,0.2061,0.2269,0.2722,0.3898,0.3167,1.5550,0.2862,9.4609,0.3043,0.0534,-0.0318
P1J,J,128503,0.2108,0.2297,0.2460,0.3876,0.2692,1.5999,0.0341,9.3675,0.2733,0.0000,-0.0333
P1J,J,128523,0.2097,0.2313,0.2604,0.3838,0.2305,1.3328,-0.0419,9.2017,0.2202,-0.0304,-0.0652
P1J,J,128543,0.2104,0.2336,0.2627,0.3804,0.3152,1.1682,-0.0048,9.1753,0.1664,0.0096,-0.0596
P1J,J,128563,0.2108,0.2332,0.2782,0.3898,0.2535,1.3364,-0.0455,9.2466,0.1326,0.0398,-0.0224
P1J,J,128583,0.2122,0.2344,0.2710,0.3706,0.2756,1.6322,0.2377,9.3717,0.0943,0.0071,-0.0172
P1J,J,128603,0.2126,0.2321,0.2600,0.3827,0.3319,1.6927,0.2629,9.4400,0.1039,-0.0822,-0.0216
P1J,J,128623,0.2136,0.2328,0.2661,0.3857,0.3338,1.5813,0.4203,9.4495,0.1251,-0.1511,-0.0309
P1J,J,128643,0.2097,0.2427,0.2687,0.3751,0.2296,1.3538,0.2096,9.4076,0.1632,-0.1567,-0.0306
P1J,J,128663,0.2176,0.2372,0.2649,0.3785,0.2902,1.1191,0.1251,9.3520,0.1541,-0.0763,-0.0469
P1J,J,128683,0.2176,0.2340,0.2695,0.3842,0.3235,0.9658,0.0461,9.2478,0.1211,0.0566,-0.0632
P1J,J,128703,0.2222,0.2392,0.2687,0.4068,0.2677,1.1155,0.0611,9.4064,0.1005,0.1460,-0.0318
P1J,J,128723,0.2244,0.2419,0.2653,0.3936,0.2922,1.1095,-0.2185,9.3705,0.0975,0.1274,-0.0233
P1J,J,128743,0.2323,0.2392,0.2737,0.3940,0.3676,0.9520,-0.3628,9.2867,0.0481,0.1065,-0.0164
P1J,J,128763,0.2359,0.2447,0.2737,0.3778,0.2609,0.9496,-0.3347,9.1550,0.0047,0.0963,0.0039
P1J,J,128783,0.2351,0.2423,0.2813,0.3921,0.2672,0.9628,-0.4628,9.0915,-0.0457,0.1128,0.0497
P1J,J,128803,0.2355,0.2435,0.2843,0.3966,0.2937,0.9544,-0.5227,9.0436,-0.1339,0.1593,0.0923
P1J,J,128823,0.2359,0.2455,0.2748,0.4301,0.3328,1.2580,-0.4155,9.0903,-0.2455,0.2282,0.1350
P1J,J,128843,0.2387,0.2455,0.2953,0.4008,0.2765,1.5795,-0.2138,9.0843,-0.3357,0.2152,0.1641
P1J,J,128863,0.2395,0.2467,0.2911,0.3895,0.2858,1.6933,-0.0419,9.0729,-0.4137,0.2044,0.1689
P1J,J,128883,0.2409,0.2384,0.2839,0.4060,0.2937,1.9394,0.1311,9.0334,-0.4866,0.1757,0.1751
P1J,J,128903,0.2323,0.2435,0.2847,0.3977,0.3392,1.7268,0.1940,9.0340,-0.5320,0.2245,0.1725
P1J,J,128923,0.2398,0.2459,0.2862,0.4207,0.3788,2.0394,0.4269,9.3933,-0.5634,0.3484,0.1495
P1J,J,128943,0.2477,0.2423,0.2873,0.3921,0.2868,2.9998,0.9023,9.9663,-0.4927,0.3269,0.1220
P1J,J,128963,0.2534,0.2431,0.2771,0.4011,0.3328,3.4895,0.9736,10.3309,-0.3387,0.1104,0.1196
P1J,J,128983,0.2541,0.2439,0.2877,0.4057,0.2623,3.3961,0.7275,10.4441,-0.1976,-0.0742,0.0813
P1J,J,129003,0.2584,0.2431,0.2900,0.3993,0.2991,2.9914,0.7460,10.2082,-0.1447,-0.0841,-0.0172
P1J,J,129023,0.2595,0.2451,0.2949,0.4245,0.2800,2.5046,0.8826,9.6130,-0.0041,0.0622,-0.0862
P1J,J,129043,0.2599,0.2443,0.2854,0.3902,0.3637,2.6273,0.7113,9.2999,0.1388,0.1412,-0.1120
P1J,J,129063,0.2606,0.2427,0.2748,0.4237,0.2976,2.8070,0.4628,9.2071,0.1242,-0.0253,-0.1199
P1J,J,129083,0.2588,0.2443,0.2760,0.4117,0.2986,2.5399,0.6149,9.0951,-0.0031,-0.2226,-0.1218
P1J,J,129103,0.2617,0.2495,0.2904,0.4196,0.3509,2.0891,0.8383,9.2100,-0.0819,-0.2210,-0.1336
P1J,J,129123,0.2624,0.2431,0.2896,0.4320,0.3573,1.9202,1.0520,9.4699,-0.0946,-0.0564,-0.1266
P1J,J,129143,0.2599,0.2455,0.2965,0.4117,0.2922,2.3393,1.2119,9.6549,-0.0857,0.0007,-0.1047
P1J,J,129163,0.2599,0.2447,0.2911,0.4030,0.3495,2.2657,1.1304,9.6423,0.0104,-0.1014,-0.1366
P1J,J,129183,0.2595,0.2455,0.2911,0.4177,0.3950,1.8346,0.9975,9.5322,0.0822,-0.2082,-0.1757
P1J,J,129203,0.2563,0.2495,0.2919,0.3902,0.2251,1.3897,1.0311,9.2897,0.1092,-0.2145,-0.1737
P1J,J,129223,0.2588,0.2479,0.2896,0.4237,0.3529,1.1161,0.9448,9.1208,0.1522,-0.1372,-0.1616
P1J,J,129243,0.2577,0.2451,0.2949,0.4177,0.2907,0.9676,0.7826,9.0663,0.1823,-0.0806,-0.1536
P1J,J,129263,0.2577,0.2479,0.2839,0.3917,0.3730,1.0227,0.4724,9.3094,0.1482,-0.1111,-0.1422
P1J,J,129283,0.2606,0.2475,0.2972,0.4023,0.3828,0.7335,0.5329,9.3166,0.1430,-0.1516,-0.1017
P1J,J,129303,0.2602,0.2495,0.2965,0.4087,0.2986,0.7574,0.5125,9.3807,0.1390,-0.1713,-0.0365
P1J,J,129323,0.2588,0.2507,0.2938,0.4151,0.3793,0.7119,0.6293,9.3795,0.1507,-0.1629,-0.0021
P1J,J,129343,0.2595,0.2483,0.2976,0.4019,0.2648,0.9077,0.6784,9.3430,0.1752,-0.1717,0.0321
P1J,J,129363,0.2620,0.2455,0.2953,0.4004,0.2927,1.0664,0.6287,9.3430,0.2001,-0.1951,0.0501
P1J,J,129383,0.2581,0.2463,0.2957,0.4008,0.3828,0.9377,0.3844,9.1747,0.1964,-0.2264,0.0345
P1J,J,129403,0.2584,0.2487,0.3037,0.4196,0.3460,0.7664,0.2646,8.9484,0.1536,-0.1879,0.0525
P1J,J,129423,0.2588,0.2455,0.3120,0.4090,0.3348,0.6981,0.1784,8.8191,0.0915,-0.0773,0.0947
P1J,J,129443,0.2567,0.2471,0.3040,0.4316,0.3583,0.9442,0.0623,8.9077,-0.0953,0.0971,0.2001
P1J,J,129463,0.2606,0.2467,0.3044,0.4286,0.2628,1.5071,0.3269,9.1226,-0.2114,0.2419,0.2434
P1J,J,129483,0.2581,0.2479,0.2987,0.4000,0.3152,2.2387,0.4095,9.3023,-0.2543,0.2543,0.2693
P1J,J,129503,0.2588,0.2503,0.3082,0.4414,0.2398,2.6567,0.5682,9.7268,-0.2605,0.1767,0.2389
P1J,J,129523,0.2588,0.2495,0.3090,0.4426,0.3201,2.7525,0.7454,9.9315,-0.2373,0.1088,0.1695
P1J,J,129543,0.2588,0.2507,0.3067,0.4324,0.2824,2.7609,0.9909,10.0800,-0.1625,0.1537,0.1525
P1J,J,129563,0.2638,0.2503,0.3128,0.4117,0.2535,2.9135,1.1646,10.1423,-0.0476,0.2113,0.1119
P1J,J,129583,0.2595,0.2499,0.3135,0.4087,0.2785,3.0734,1.2263,10.0681,0.0374,0.1793,0.0809
P1J,J,129603,0.2592,0.2495,0.3196,0.4072,0.2805,2.8525,1.2795,9.8836,0.1256,0.1224,0.0404
P1J,J,129623,0.2570,0.2518,0.3128,0.4249,0.3808,2.5818,1.0532,9.6813,0.2050,0.1388,0.0085
P1J,J,129643,0.2552,0.2491,0.3044,0.4350,0.3573,2.4136,0.7718,9.5130,0.2481,0.2050,0.0123
P1J,J,129663,0.2574,0.2518,0.3120,0.4237,0.3828,2.4711,0.4598,9.2627,0.2545,0.2276,0.0091
