person_id,label,timestamp,flex1,flex2,flex3,flex4,flex5,ax,ay,az,gx,gy,gz
P1K,K,906563,0.9944,0.9994,0.9872,1.0000,0.9621,-2.0364,-9.0478,-3.5159,0.0377,-0.0120,0.0148
P1K,K,906583,0.9952,0.9982,1.0000,0.9928,0.9708,-1.9927,-9.0059,-3.5812,0.0322,-0.0036,0.0083
P1K,K,906603,0.9956,0.9986,1.0000,1.0000,0.9882,-2.0046,-9.0484,-3.5704,0.0326,-0.0325,-0.0119
P1K,K,906623,0.9956,0.9977,0.9982,0.9950,1.0000,-2.1525,-8.9316,-3.5847,0.0370,-0.0442,-0.0253
P1K,K,906643,0.9933,0.9948,0.9965,0.9991,1.0000,-2.1447,-9.0945,-3.6722,0.0430,-0.0400,-0.0149
P1K,K,906663,0.9944,0.9969,0.9893,0.9943,0.9361,-2.0597,-8.9574,-3.7237,0.0233,-0.0326,-0.0049
P1K,K,906683,0.9952,0.9960,1.0000,0.9943,0.9626,-2.0418,-9.0041,-3.7326,0.0127,-0.0657,-0.0061
P1K,K,906703,0.9952,0.9960,0.9876,0.9898,1.0000,-2.0992,-8.9376,-3.7069,0.0160,-0.0614,-0.0127
P1K,K,906723,0.9952,0.9973,1.0000,0.9909,0.9447,-2.0328,-8.8981,-3.6931,0.0253,-0.0245,-0.0132
P1K,K,906743,0.9956,0.9960,1.0000,0.9973,0.9297,-1.9843,-8.9969,-3.7183,0.0241,-0.0261,-0.0172
P1K,K,906763,0.9956,0.9965,0.9965,0.9913,0.9841,-2.0597,-8.9969,-3.7710,0.0116,-0.0413,-0.0249
P1K,K,906783,0.9940,0.9977,0.9952,1.0000,1.0000,-2.1220,-8.9262,-3.7482,0.0047,-0.0211,-0.0222
P1K,K,906803,0.9944,0.9939,0.9690,0.9976,1.0000,-2.0938,-8.9077,-3.7069,0.0008,-0.0144,-0.0217
P1K,K,906823,0.9993,0.9944,0.9918,0.9898,1.0000,-2.2034,-8.8987,-3.6782,0.0152,-0.0273,-0.0290
P1K,K,906843,0.9959,0.9990,0.9897,1.0000,0.9443,-2.3130,-8.9478,-3.6877,0.0188,-0.0229,-0.0301
P1K,K,906863,0.9933,0.9956,1.0000,1.0000,1.0000,-2.3765,-8.9616,-3.6758,0.0095,-0.0079,-0.0037
P1K,K,906883,0.9925,0.9927,0.9956,1.0000,0.9434,-2.3118,-8.9340,-3.6782,0.0021,0.0039,0.0152
P1K,K,906903,0.9944,0.9927,0.9893,0.9898,1.0000,-2.2986,-8.9795,-3.6171,0.0087,0.0024,0.0220
P1K,K,906923,0.9956,0.9948,1.0000,1.0000,0.9735,-2.1489,-8.9813,-3.5829,-0.0084,-0.0183,0.0184
P1K,K,906943,0.9948,0.9935,0.9796,0.9943,0.9530,-2.1621,-9.0178,-3.5153,-0.0117,-0.0665,0.0023
P1K,K,906963,0.9933,0.9935,0.9720,1.0000,1.0000,-2.2549,-8.9765,-3.4752,-0.0059,-0.0585,0.0016
P1K,K,906983,0.9956,0.9944,0.9952,0.9901,1.0000,-2.1112,-9.0849,-3.5165,-0.0028,-0.0301,0.0205
P1K,K,907003,0.9933,0.9948,0.9889,0.9721,1.0000,-2.0028,-9.0059,-3.4626,-0.0051,-0.0396,0.0153
P1K,K,907023,0.9952,0.9956,0.9961,0.9883,1.0000,-2.0160,-9.0538,-3.4770,0.0180,-0.0544,0.0045
P1K,K,907043,0.9940,0.9960,0.9990,0.9819,1.0000,-2.0382,-9.0556,-3.4895,0.0261,-0.0560,-0.0056
P1K,K,907063,0.9963,0.9944,0.9948,0.9853,0.9799,-2.0723,-9.0651,-3.5572,0.0248,-0.0222,0.0037
P1K,K,907083,0.9952,0.9944,0.9965,0.9916,0.9489,-1.9591,-9.0376,-3.6189,0.0289,-0.0084,0.0043
P1K,K,907103,0.9940,0.9973,0.9931,0.9969,1.0000,-1.9549,-9.0592,-3.6512,0.0233,-0.0249,-0.0035
P1K,K,907123,0.9922,0.9897,0.9948,0.9976,1.0000,-1.9669,-9.0747,-3.6494,0.0197,-0.0494,-0.0209
P1K,K,907143,0.9899,0.9931,0.9931,0.9819,1.0000,-2.1501,-9.0508,-3.6201,0.0073,-0.0426,-0.0261
P1K,K,907163,0.9952,0.9969,0.9982,0.9766,0.9818,-2.1286,-9.0155,-3.5590,0.0116,-0.0218,-0.0077
P1K,K,907183,0.9944,0.9956,1.0000,0.9988,1.0000,-2.0615,-9.0556,-3.5997,0.0200,-0.0306,-0.0099
P1K,K,907203,0.9933,0.9956,1.0000,1.0000,0.9781,-2.1358,-9.0496,-3.6255,0.0314,-0.0473,-0.0148
P1K,K,907223,0.9948,0.9977,1.0000,0.9965,1.0000,-2.1585,-9.0610,-3.6536,0.0338,-0.0392,-0.0033
P1K,K,907243,0.9952,0.9939,0.9935,0.9901,0.9484,-2.0088,-9.0256,-3.6913,0.0325,-0.0556,0.0009
P1K,K,907263,0.9959,0.9931,1.0000,0.9991,1.0000,-1.9765,-9.0011,-3.7584,0.0362,-0.0697,-0.0051
P1K,K,923483,0.7096,0.5887,0.0000,0.0000,0.1642,-0.7155,-9.0382,-3.8769,0.0478,-0.0994,0.0031
P1K,K,923503,0.7103,0.5908,0.0000,0.0000,0.2309,-0.7173,-9.2029,-3.8686,0.0572,-0.0737,0.0053
P1K,K,923523,0.7040,0.5862,0.0000,0.0000,0.1614,-0.6419,-9.1867,-3.8542,0.0199,-0.0388,0.0105
P1K,K,923543,0.7111,0.5841,0.0000,0.0000,0.2432,-0.4976,-9.1238,-3.8380,0.0003,-0.0258,0.0109
P1K,K,923563,0.7133,0.5833,0.0000,0.0000,0.2327,-0.4838,-9.0460,-3.7919,0.0317,-0.0433,-0.0044
P1K,K,923583,0.7145,0.5845,0.0000,0.0000,0.2281,-0.5628,-9.2154,-3.8434,0.0354,-0.0682,-0.0176
P1K,K,923603,0.7231,0.5837,0.0000,0.0000,0.1619,-0.7736,-9.0526,-3.7853,0.0253,-0.0604,-0.0091
P1K,K,923623,0.7111,0.5816,0.0000,0.0000,0.1742,-0.6335,-9.1436,-3.8440,0.0384,-0.0328,0.0036
P1K,K,923643,0.7092,0.5841,0.0000,0.0000,0.1678,-0.6323,-9.0945,-3.9027,0.0314,-0.0582,-0.0003
P1K,K,923663,0.7115,0.5828,0.0000,0.0000,0.1811,-0.6928,-8.9616,-3.9626,0.0376,-0.0986,-0.0099
P1K,K,923683,0.7103,0.5858,0.0000,0.0000,0.2135,-0.6095,-9.0765,-4.0386,0.0568,-0.1138,-0.0111
P1K,K,923703,0.7103,0.5807,0.0000,0.0000,0.1884,-0.7179,-9.0544,-4.0614,0.0417,-0.1250,-0.0167
P1K,K,923723,0.7111,0.5854,0.0000,0.0000,0.2432,-0.7838,-9.1645,-4.0404,0.0175,-0.0353,0.0000
P1K,K,923743,0.7126,0.5828,0.0000,0.0000,0.1326,-0.5341,-9.0466,-4.0164,-0.0369,0.0124,0.0266
P1K,K,923763,0.7118,0.5828,0.0000,0.0000,0.1514,-0.4389,-8.9664,-3.9147,-0.0310,-0.0242,0.0035
P1K,K,923783,0.7118,0.5782,0.0000,0.0000,0.1262,-0.5580,-9.0568,-3.9123,-0.0120,-0.0525,-0.0172
P1K,K,923803,0.7118,0.5879,0.0000,0.0000,0.2377,-0.6562,-9.1645,-3.8542,0.0048,-0.0530,-0.0145
P1K,K,923823,0.7122,0.5811,0.0000,0.0000,0.1902,-0.6245,-9.1849,-3.8278,0.0048,-0.0617,-0.0045
P1K,K,923843,0.7092,0.5841,0.0000,0.0000,0.2231,-0.6706,-9.1885,-3.7793,0.0027,-0.0450,-0.0037
P1K,K,923863,0.7100,0.5833,0.0000,0.0000,0.2729,-0.6065,-9.0741,-3.8530,0.0007,-0.0325,0.0036
P1K,K,923883,0.7107,0.5841,0.0000,0.0000,0.1774,-0.6592,-9.1394,-3.8524,0.0181,-0.0380,0.0052
P1K,K,923903,0.7066,0.5820,0.0000,0.0000,0.1441,-0.6119,-9.1226,-3.8584,0.0164,-0.0313,-0.0027
P1K,K,923923,0.7025,0.5917,0.0000,0.0000,0.2254,-0.5904,-9.0789,-3.8548,0.0216,-0.0394,-0.0109
P1K,K,923943,0.7100,0.5811,0.0000,0.0000,0.2172,-0.5287,-9.1699,-3.8985,0.0168,-0.0501,-0.0187
P1K,K,923963,0.7111,0.5866,0.0000,0.0000,0.1765,-0.6736,-9.1651,-3.9171,-0.0004,-0.0714,-0.0151
P1K,K,923983,0.7115,0.5816,0.0000,0.0000,0.2080,-0.6970,-9.0921,-3.9015,-0.0171,-0.0408,-0.0029
P1K,K,924003,0.7085,0.5854,0.0000,0.0000,0.2213,-0.6029,-9.0687,-3.8715,-0.0008,-0.0236,0.0076
P1K,K,924023,0.7088,0.5845,0.0000,0.0000,0.2446,-0.6772,-9.0484,-3.8278,0.0228,-0.0286,0.0052
P1K,K,924043,0.7103,0.5845,0.0000,0.0000,0.1377,-0.6065,-9.1436,-3.8512,0.0357,0.0067,0.0099
P1K,K,924063,0.7085,0.5824,0.0000,0.0000,0.2286,-0.4227,-9.1436,-3.9512,0.0115,-0.0308,-0.0039
P1K,K,924083,0.7111,0.5875,0.0000,0.0000,0.1468,-0.5958,-9.0149,-3.9823,0.0133,-0.0794,-0.0221
P1K,K,924103,0.7107,0.5862,0.0000,0.0000,0.2537,-0.6335,-9.1166,-3.9596,0.0310,-0.0369,-0.0144
P1K,K,924123,0.7103,0.5917,0.0000,0.0000,0.2313,-0.6173,-9.2172,-3.9512,0.0172,-0.0278,-0.0012
P1K,K,924143,0.7088,0.5858,0.0000,0.0000,0.2304,-0.5622,-9.1687,-3.9224,0.0087,-0.0358,-0.0040
P1K,K,924163,0.7103,0.5858,0.0000,0.0000,0.2350,-0.6401,-9.1831,-3.9308,-0.0149,-0.0314,-0.0113
P1K,K,924183,0.7077,0.5837,0.0000,0.0000,0.1843,-0.6706,-9.0208,-3.8901,-0.0068,-0.0332,-0.0071
P1K,K,924203,0.7115,0.5849,0.0000,0.0000,0.2441,-0.7544,-9.0412,-3.8254,0.0276,-0.0027,0.0027
P1K,K,924223,0.7115,0.5820,0.0000,0.0000,0.2720,-0.5910,-9.1669,-3.8111,0.0498,0.0180,-0.0020
P1K,K,924243,0.7100,0.5854,0.0000,0.0000,0.2313,-0.5485,-9.2130,-3.8236,0.0277,-0.0402,-0.0163
P1K,K,924263,0.7085,0.5833,0.0000,0.0000,0.1765,-0.7317,-9.0801,-3.8721,0.0212,-0.0502,-0.0187
P1K,K,924283,0.7100,0.5866,0.0000,0.0000,0.2624,-0.6820,-9.0316,-3.9506,0.0284,-0.0051,0.0041
P1K,K,924303,0.7118,0.5841,0.0000,0.0000,0.2478,-0.5940,-9.0717,-3.9644,0.0293,-0.0240,0.0071
P1K,K,924323,0.7062,0.5858,0.0000,0.0000,0.1879,-0.7053,-9.1274,-3.9470,0.0230,-0.0484,-0.0004
P1K,K,924343,0.7096,0.5841,0.0000,0.0000,0.2231,-0.5952,-9.0795,-3.9650,0.0141,-0.0456,-0.0059
P1K,K,924363,0.7148,0.5870,0.0000,0.0000,0.2524,-0.6107,-9.1430,-3.9236,0.0103,-0.0779,-0.0121
P1K,K,924383,0.7107,0.5862,0.0000,0.0000,0.2505,-0.6437,-9.0598,-3.9440,0.0100,-0.0693,-0.0108
P1K,K,924403,0.7103,0.5862,0.0000,0.0000,0.1738,-0.6035,-9.0723,-3.8644,0.0230,-0.0536,-0.0049
P1K,K,924423,0.7118,0.5875,0.0000,0.0000,0.1614,-0.6616,-9.1556,-3.9021,0.0183,-0.0518,0.0031
P1K,K,924443,0.7096,0.5866,0.0000,0.0000,0.2405,-0.5766,-9.1244,-3.8895,0.0015,-0.0372,0.0059
P1K,K,924463,0.7118,0.5883,0.0000,0.0000,0.1532,-0.5503,-9.0472,-3.8973,0.0045,-0.0236,0.0001
P1K,K,924483,0.7115,0.5841,0.0000,0.0000,0.1806,-0.4892,-9.1801,-3.8698,0.0005,-0.0250,-0.0044
P1K,K,924503,0.7096,0.5892,0.0000,0.0000,0.2094,-0.6341,-9.1250,-3.9015,-0.0052,-0.0438,-0.0073
P1K,K,924523,0.7122,0.5858,0.0000,0.0000,0.2295,-0.6508,-9.0394,-3.8512,0.0008,-0.0510,-0.0183
P1K,K,924543,0.7107,0.5833,0.0000,0.0000,0.1445,-0.7598,-9.0502,-3.8135,0.0250,-0.0558,-0.0179
P1K,K,924563,0.7100,0.5824,0.0000,0.0000,0.2451,-0.7179,-9.1388,-3.8644,0.0340,-0.0171,-0.0028
P1K,K,924583,0.7096,0.5892,0.0000,0.0000,0.2345,-0.5742,-9.2089,-3.9015,0.0187,-0.0176,0.0085
P1K,K,924603,0.7111,0.5866,0.0000,0.0000,0.1473,-0.6245,-9.0208,-3.9081,0.0145,-0.0356,0.0059
P1K,K,924623,0.7100,0.5820,0.0000,0.0000,0.2181,-0.6473,-9.1184,-3.9344,0.0322,-0.0365,-0.0003
P1K,K,924643,0.7111,0.5862,0.0000,0.0000,0.2400,-0.6011,-9.0897,-3.9829,0.0163,-0.0322,-0.0016
P1K,K,924663,0.7103,0.5854,0.0000,0.0000,0.2409,-0.6071,-9.1328,-4.0135,0.0043,-0.0233,-0.0001
P1K,K,924683,0.7088,0.5845,0.0000,0.0000,0.1856,-0.5646,-8.9891,-3.9763,-0.0104,-0.0157,0.0035
P1K,K,924703,0.7115,0.5854,0.0000,0.0000,0.1706,-0.6119,-9.0628,-4.0524,0.0137,-0.0358,-0.0033
P1K,K,924723,0.7107,0.5866,0.0000,0.0000,0.1893,-0.6101,-9.1987,-4.0823,-0.0039,-0.0071,-0.0039
P1K,K,924743,0.7107,0.5925,0.0000,0.0000,0.1719,-0.4772,-9.0532,-3.9194,-0.0280,-0.0436,-0.0009
P1K,K,924763,0.7107,0.5841,0.0000,0.0000,0.1724,-0.6616,-9.1154,-3.8530,-0.0108,-0.0517,-0.0143
P1K,K,924783,0.7107,0.5837,0.0000,0.0000,0.2277,-0.6131,-9.1011,-3.8009,-0.0001,0.0003,-0.0047
P1K,K,924803,0.7081,0.5858,0.0000,0.0000,0.1564,-0.5532,-9.2029,-3.7919,0.0016,-0.0075,-0.0053
P1K,K,924823,0.7088,0.5807,0.0000,0.0000,0.1852,-0.6544,-9.1083,-3.8099,0.0008,-0.0168,-0.0080
P1K,K,924843,0.7092,0.5845,0.0000,0.0000,0.1934,-0.5006,-9.1196,-3.8314,0.0184,-0.0304,-0.0233
P1K,K,924863,0.7107,0.5841,0.0000,0.0000,0.2487,-0.7329,-9.1059,-3.8410,0.0185,-0.0697,-0.0254
P1K,K,924883,0.7100,0.5837,0.0000,0.0000,0.2679,-0.7586,-9.0556,-3.8524,0.0424,-0.0396,-0.0071
P1K,K,924903,0.7088,0.5824,0.0000,0.0000,0.1811,-0.5844,-9.2190,-3.9913,0.0337,-0.0353,-0.0115
P1K,K,924923,0.7085,0.5849,0.0000,0.0000,0.1591,-0.6916,-9.0795,-3.9889,0.0041,-0.0542,-0.0172
P1K,K,924943,0.7103,0.5833,0.0000,0.0000,0.2099,-0.6628,-9.0819,-4.0200,-0.0019,-0.0344,-0.0093
P1K,K,924963,0.7092,0.5858,0.0000,0.0000,0.1212,-0.6347,-9.0226,-4.0057,0.0080,-0.0370,-0.0032
P1K,K,924983,0.7088,0.5782,0.0000,0.0000,0.1788,-0.6239,-9.1262,-3.8865,0.0193,-0.0350,-0.0008
P1K,K,925003,0.7100,0.5862,0.0000,0.0000,0.2190,-0.6431,-9.1017,-3.8290,0.0132,-0.0428,-0.0076
P1K,K,925023,0.7115,0.5875,0.0000,0.0000,0.2218,-0.5976,-9.1316,-3.8476,0.0183,-0.0161,0.0003
P1K,K,925043,0.7092,0.5870,0.0000,0.0000,0.2816,-0.5425,-9.1113,-3.8111,0.0143,-0.0286,-0.0061
P1K,K,925063,0.7100,0.5862,0.0000,0.0000,0.2464,-0.6269,-9.0376,-3.8093,0.0338,-0.0494,-0.0203
P1K,K,925083,0.7111,0.5875,0.0000,0.0000,0.2254,-0.6610,-9.2142,-3.8847,0.0400,-0.0424,-0.0230
P1K,K,925103,0.7130,0.5854,0.0000,0.0000,0.1422,-0.7071,-9.1651,-3.9614,0.0071,-0.0249,-0.0084
P1K,K,925123,0.7103,0.5849,0.0000,0.0000,0.2213,-0.7299,-9.0909,-3.9644,-0.0049,-0.0040,0.0016
P1K,K,925143,0.7088,0.5854,0.0000,0.0000,0.2656,-0.6173,-9.1136,-3.9356,-0.0040,-0.0148,-0.0039
P1K,K,925163,0.7096,0.5858,0.0000,0.0000,0.2414,-0.6508,-9.0478,-3.9045,0.0121,-0.0493,-0.0113
P1K,K,925183,0.7126,0.5866,0.0000,0.0000,0.1911,-0.7281,-9.1142,-3.9320,0.0092,-0.0534,-0.0083
P1K,K,925203,0.7100,0.5875,0.0000,0.0000,0.2309,-0.6934,-9.0807,-3.9248,0.0077,-0.0273,0.0099
P1K,K,925223,0.7077,0.5900,0.0000,0.0000,0.2483,-0.6077,-9.1508,-3.9236,-0.0013,-0.0292,0.0100
P1K,K,925243,0.7103,0.5900,0.0000,0.0000,0.1331,-0.6155,-9.0981,-3.8841,0.0000,-0.0238,0.0092
P1K,K,925263,0.7111,0.5879,0.0000,0.0000,0.2364,-0.5814,-9.0819,-3.9057,0.0097,-0.0505,-0.0032
P1K,K,925283,0.7107,0.5833,0.0000,0.0000,0.2227,-0.6173,-9.0993,-3.9464,0.0048,-0.0549,-0.0127
P1K,K,925303,0.7107,0.5870,0.0000,0.0000,0.2190,-0.6760,-9.0580,-3.9117,0.0132,-0.0582,-0.0056
P1K,K,925323,0.7107,0.5849,0.0000,0.0000,0.2176,-0.6598,-9.1621,-3.9452,0.0132,-0.0188,-0.0039
P1K,K,925343,0.7081,0.5841,0.0000,0.0000,0.2455,-0.5802,-9.0424,-3.9033,0.0040,-0.0264,0.0040
P1K,K,925363,0.7122,0.5862,0.0000,0.0000,0.2528,-0.5401,-9.1777,-3.8823,0.0136,-0.0390,-0.0085
P1K,K,925383,0.7130,0.5862,0.0000,0.0000,0.2327,-0.6335,-9.1130,-3.9165,-0.0021,-0.0437,-0.0140
P1K,K,925403,0.7025,0.5837,0.0000,0.0000,0.2254,-0.6083,-9.0610,-3.8518,0.0144,-0.0249,-0.0064
P1K,K,925423,0.7092,0.5841,0.0000,0.0000,0.2327,-0.6365,-9.1238,-3.9117,0.0168,-0.0321,-0.0088
P1K,K,925443,0.7073,0.5858,0.0000,0.0000,0.1852,-0.6748,-9.1502,-3.8997,0.0052,-0.0232,-0.0083
P1K,K,925463,0.7100,0.5854,0.0000,0.0000,0.1994,-0.5814,-9.1107,-3.8554,0.0039,-0.0465,-0.0131
P1K,K,925483,0.7096,0.5879,0.0000,0.0000,0.2377,-0.6820,-9.0837,-3.8895,0.0128,-0.0629,-0.0144
P1K,K,925503,0.7096,0.5900,0.0000,0.0000,0.2259,-0.7275,-9.1370,-3.9194,0.0183,-0.0356,-0.0061
P1K,K,925523,0.7103,0.5866,0.0000,0.0000,0.2844,-0.6065,-9.1382,-3.9554,0.0059,-0.0132,0.0004
P1K,K,925543,0.7190,0.5870,0.0000,0.0000,0.1971,-0.6365,-9.0699,-3.9685,0.0004,-0.0369,-0.0017
P1K,K,925563,0.7118,0.5833,0.0000,0.0000,0.2569,-0.6233,-9.0508,-3.9632,-0.0021,-0.0501,-0.0103
P1K,K,925583,0.7130,0.5896,0.0000,0.0000,0.1998,-0.6886,-9.0741,-3.9027,0.0080,-0.0498,-0.0041
P1K,K,925603,0.7126,0.5862,0.0000,0.0000,0.1907,-0.6814,-9.0753,-3.8781,0.0011,-0.0304,-0.0004
P1K,K,925623,0.7103,0.5866,0.0000,0.0000,0.2250,-0.6227,-9.0801,-3.8470,0.0215,-0.0269,0.0025
P1K,K,925643,0.7130,0.5849,0.0000,0.0000,0.2368,-0.5898,-9.1364,-3.8135,0.0406,-0.0342,-0.0087
P1K,K,925663,0.7115,0.5866,0.0000,0.0000,0.2300,-0.5724,-9.2232,-3.9117,0.0185,-0.0352,-0.0076
P1K,K,925683,0.7088,0.5875,0.0000,0.0000,0.2277,-0.5922,-9.0460,-3.8632,0.0103,-0.0350,-0.0133
P1K,K,925703,0.7088,0.5849,0.0000,0.0000,0.2400,-0.6281,-9.1202,-3.9135,0.0196,-0.0409,-0.0187
P1K,K,925723,0.7122,0.5858,0.0000,0.0000,0.1715,-0.7185,-9.1184,-3.9392,0.0068,-0.0556,-0.0192
P1K,K,925743,0.6983,0.5833,0.0000,0.0000,0.2286,-0.7766,-9.1448,-3.9638,-0.0040,-0.0698,-0.0071
P1K,K,925763,0.7088,0.5870,0.0000,0.0000,0.2483,-0.7610,-9.0388,-3.8817,-0.0019,-0.0778,0.0051
P1K,K,925783,0.7088,0.5841,0.0000,0.0000,0.1907,-0.6916,-9.1262,-3.8763,0.0301,-0.0895,0.0113
P1K,K,925803,0.7163,0.5828,0.0000,0.0000,0.1692,-0.7419,-9.2059,-3.9206,0.0217,-0.0741,0.0184
P1K,K,925823,0.7088,0.5866,0.0000,0.0000,0.1879,-0.5736,-9.0406,-3.8338,0.0294,-0.0352,0.0249
P1K,K,925843,0.7133,0.5824,0.0000,0.0000,0.2464,-0.3610,-9.1729,-3.9344,0.0324,-0.0452,0.0035
P1K,K,925863,0.7077,0.5820,0.0000,0.0000,0.2323,-0.4712,-9.0250,-3.9554,0.0024,-0.0645,-0.0121
P1K,K,925883,0.7073,0.5845,0.0000,0.0000,0.2949,-0.5592,-9.0837,-3.9183,0.0156,-0.0396,-0.0111
P1K,K,925903,0.7096,0.5875,0.0000,0.0000,0.1765,-0.5922,-9.0598,-3.9404,0.0228,-0.0301,-0.0156
P1K,K,925923,0.7085,0.5866,0.0000,0.0000,0.1811,-0.6389,-9.1274,-3.9111,0.0258,-0.0278,-0.0211
P1K,K,925943,0.7085,0.5845,0.0000,0.0000,0.2172,-0.6556,-9.1645,-3.9811,0.0189,-0.0401,-0.0155
P1K,K,925963,0.7103,0.5887,0.0000,0.0000,0.1596,-0.6796,-9.0520,-4.0105,-0.0072,-0.0556,-0.0143
P1K,K,925983,0.7111,0.5862,0.0000,0.0000,0.1756,-0.7790,-9.1232,-3.9895,-0.0119,-0.0340,-0.0019
P1K,K,926003,0.7088,0.5875,0.0000,0.0000,0.2611,-0.6269,-9.1035,-3.9159,-0.0159,-0.0105,0.0085
P1K,K,926023,0.7133,0.5887,0.0000,0.0000,0.1381,-0.5544,-9.1011,-3.8123,-0.0051,-0.0191,0.0020
P1K,K,926043,0.7085,0.5896,0.0000,0.0000,0.1920,-0.5610,-9.1436,-3.8147,-0.0052,-0.0369,-0.0141
P1K,K,926063,0.7096,0.5892,0.0000,0.0000,0.1674,-0.6233,-9.1101,-3.7572,-0.0031,-0.0340,-0.0145
P1K,K,926083,0.7107,0.5858,0.0000,0.0000,0.1701,-0.7035,-9.1041,-3.7704,0.0095,-0.0124,-0.0063
P1K,K,926103,0.7107,0.5883,0.0000,0.0000,0.1436,-0.5700,-9.0741,-3.8051,0.0357,-0.0164,-0.0155
P1K,K,926123,0.7096,0.5917,0.0000,0.0000,0.1724,-0.6880,-9.1915,-3.8823,0.0577,-0.0544,-0.0211
P1K,K,926143,0.7085,0.5883,0.0000,0.0000,0.1866,-0.7520,-9.1927,-3.9584,0.0342,-0.0228,-0.0097
P1K,K,926163,0.7100,0.5892,0.0000,0.0000,0.1724,-0.6526,-9.0861,-3.9937,0.0196,-0.0199,-0.0023
P1K,K,926183,0.7085,0.5879,0.0000,0.0000,0.1975,-0.6844,-9.0466,-4.0093,0.0266,-0.0361,-0.0083
P1K,K,926203,0.7088,0.5854,0.0000,0.0000,0.1148,-0.6730,-9.0921,-4.0117,0.0120,-0.0397,-0.0064
P1K,K,926223,0.7111,0.5862,0.0000,0.0000,0.1824,-0.6383,-9.1478,-4.0434,-0.0117,-0.0509,0.0023
P1K,K,926243,0.7085,0.5879,0.0000,0.0000,0.1459,-0.5970,-9.0825,-4.0147,-0.0310,-0.0486,0.0000
P1K,K,926263,0.7088,0.5892,0.0000,0.0000,0.2259,-0.6341,-8.9496,-3.8608,-0.0153,-0.0541,-0.0076
P1K,K,926283,0.7092,0.5892,0.0000,0.0000,0.2304,-0.6006,-9.1071,-3.8326,0.0248,-0.0466,-0.0133
P1K,K,926303,0.7081,0.5879,0.0000,0.0000,0.2638,-0.4634,-9.1693,-3.8674,0.0200,-0.0385,-0.0117
P1K,K,926323,0.7073,0.5967,0.0000,0.0000,0.1559,-0.5161,-9.1442,-3.8943,0.0229,-0.0326,-0.0236
P1K,K,926343,0.7096,0.5879,0.0000,0.0000,0.1934,-0.4676,-9.1615,-4.0170,0.0121,-0.0254,-0.0218
P1K,K,926363,0.7100,0.5908,0.0000,0.0000,0.2336,-0.3455,-9.0382,-4.0937,0.0000,-0.0215,-0.0229
P1K,K,926383,0.7081,0.5862,0.0000,0.0000,0.1541,-0.3024,-9.1136,-4.1140,-0.0361,-0.0128,-0.0425
P1K,K,926403,0.7126,0.5917,0.0000,0.0000,0.1706,-0.4856,-8.9466,-4.0200,-0.0246,-0.0065,-0.0644
P1K,K,926423,0.7085,0.5811,0.0000,0.0000,0.3013,-0.6239,-9.1047,-3.9212,-0.0013,0.0043,-0.0727
P1K,K,926443,0.7126,0.5862,0.0000,0.0000,0.2834,-0.7945,-9.2795,-3.8805,0.0037,0.0041,-0.0658
P1K,K,926463,0.7085,0.5879,0.0000,0.0000,0.2469,-0.8203,-9.2849,-3.8284,-0.0290,0.0071,-0.0636
P1K,K,926483,0.7077,0.5858,0.0000,0.0000,0.2181,-0.9832,-9.1532,-3.7057,-0.0385,-0.0234,-0.0584
P1K,K,926503,0.7077,0.5883,0.0000,0.0000,0.2501,-1.1574,-9.2047,-3.5662,-0.0252,-0.0445,-0.0361
P1K,K,926523,0.7081,0.5879,0.0000,0.0000,0.2729,-1.1556,-9.1861,-3.4602,0.0065,-0.0596,-0.0116
P1K,K,926543,0.7070,0.5929,0.0000,0.0000,0.2446,-1.1113,-9.2861,-3.4740,0.0437,-0.0706,0.0091
P1K,K,926563,0.7051,0.5862,0.0000,0.0000,0.1710,-0.9418,-9.1604,-3.5596,0.0490,-0.0630,0.0356
P1K,K,926583,0.7062,0.5875,0.0000,0.0000,0.2405,-0.7065,-9.0071,-3.7314,0.0659,-0.1194,0.0238
P1K,K,926603,0.7081,0.5875,0.0000,0.0000,0.2912,-0.7023,-9.0346,-3.8763,0.0974,-0.1839,-0.0145
P1K,K,926623,0.7073,0.5887,0.0000,0.0000,0.2707,-0.7185,-9.0574,-4.0039,0.0941,-0.2340,-0.0320
P1K,K,926643,0.7058,0.5875,0.0000,0.0000,0.1866,-0.8317,-8.9430,-4.0069,0.0703,-0.2445,-0.0425
P1K,K,926663,0.7081,0.5883,0.0000,0.0000,0.2350,-0.7047,-9.0322,-4.0697,0.0574,-0.2507,-0.0498
P1K,K,926683,0.7070,0.5934,0.0000,0.0000,0.2615,-0.8880,-9.0490,-4.1745,0.0156,-0.2633,-0.0514
P1K,K,926703,0.7092,0.5866,0.0000,0.0000,0.2286,-0.7796,-8.9238,-4.1027,-0.0081,-0.2392,-0.0417
P1K,K,926723,0.7062,0.5900,0.0000,0.0000,0.1952,-0.7826,-8.8562,-4.0997,0.0400,-0.2741,-0.0297
P1K,K,926743,0.7081,0.5887,0.0000,0.0000,0.1875,-0.7862,-9.0119,-4.1925,0.0430,-0.2830,-0.0328
P1K,K,926763,0.7085,0.5879,0.0000,0.0000,0.2186,-0.7305,-9.0771,-4.2721,0.0015,-0.2627,-0.0297
P1K,K,926783,0.7073,0.5892,0.0000,0.0000,0.1633,-0.5311,-8.9682,-4.2254,-0.0234,-0.2687,-0.0513
P1K,K,926803,0.7081,0.5896,0.0000,0.0000,0.2579,-0.7311,-8.9897,-4.1997,-0.0560,-0.2770,-0.0458
P1K,K,926823,0.7073,0.5908,0.0000,0.0000,0.1674,-0.7083,-9.0244,-4.0907,-0.0421,-0.2737,-0.0325
P1K,K,926843,0.7088,0.5896,0.0000,0.0000,0.2757,-0.8095,-9.1663,-3.9955,-0.0406,-0.2185,-0.0119
P1K,K,926863,0.7062,0.5892,0.0000,0.0000,0.1587,-0.5748,-9.2442,-3.9314,-0.0695,-0.1086,0.0316
P1K,K,926883,0.7073,0.5896,0.0000,0.0000,0.2652,-0.1467,-9.1376,-3.7488,-0.0714,-0.0981,0.0244
P1K,K,926903,0.7070,0.5887,0.0000,0.0000,0.2537,-0.2898,-9.1831,-3.6841,-0.0358,-0.1252,0.0040
P1K,K,926923,0.7092,0.5900,0.0000,0.0000,0.2336,-0.3060,-9.1987,-3.6752,-0.0294,-0.0778,0.0029
P1K,K,926943,0.7073,0.5875,0.0000,0.0000,0.1395,-0.2377,-9.1262,-3.7027,0.0021,-0.0485,-0.0091
P1K,K,926963,0.7092,0.5950,0.0000,0.0000,0.2446,-0.3994,-9.2310,-3.8380,0.0160,0.0232,0.0052
P1K,K,926983,0.7081,0.5904,0.0000,0.0000,0.1514,-0.2329,-9.1430,-3.9518,0.0136,0.0566,0.0132
P1K,K,927003,0.7077,0.5984,0.0000,0.0000,0.1614,-0.1647,-9.1017,-4.0212,0.0144,-0.0157,-0.0228
P1K,K,927023,0.7088,0.5896,0.0000,0.0000,0.1920,-0.4209,-9.1783,-4.0566,-0.0032,-0.0727,-0.0546
P1K,K,927043,0.7096,0.5879,0.0000,0.0000,0.1491,-0.7431,-9.0987,-4.0620,-0.0203,-0.0153,-0.0449
P1K,K,927063,0.7077,0.5896,0.0000,0.0000,0.1856,-0.6586,-9.1915,-3.9685,-0.0458,0.0793,-0.0095
P1K,K,927083,0.7073,0.5904,0.0000,0.0000,0.1806,-0.4994,-9.1316,-3.8171,-0.0556,0.0612,-0.0024
P1K,K,927103,0.7100,0.5896,0.0000,0.0000,0.1792,-0.6257,-9.2041,-3.7656,-0.0465,0.0393,-0.0060
P1K,K,927123,0.7081,0.5892,0.0000,0.0000,0.1582,-0.6047,-9.1957,-3.7716,-0.0398,0.0738,0.0139
P1K,K,927143,0.7107,0.5883,0.0000,0.0000,0.1678,-0.4239,-9.1292,-3.6374,-0.0143,0.0236,0.0028
P1K,K,927163,0.7081,0.5883,0.0000,0.0000,0.1674,-0.5233,-9.1813,-3.6937,0.0004,0.0221,-0.0123
P1K,K,927183,0.7073,0.5875,0.0000,0.0000,0.1751,-0.5838,-9.2172,-3.7548,0.0037,0.0549,-0.0075
P1K,K,927203,0.7073,0.5866,0.0000,0.0000,0.1920,-0.5676,-9.1196,-3.7434,-0.0079,0.0850,-0.0021
P1K,K,927223,0.7066,0.5870,0.0000,0.0000,0.1847,-0.5994,-9.1604,-3.7728,-0.0085,0.0818,-0.0043
P1K,K,927243,0.7070,0.5904,0.0000,0.0000,0.1856,-0.6449,-9.1693,-3.7835,-0.0124,0.0549,-0.0111
P1K,K,927263,0.7088,0.5875,0.0000,0.0000,0.1765,-0.7173,-9.0825,-3.7290,-0.0199,0.0308,-0.0273
P1K,K,927283,0.7066,0.5887,0.0000,0.0000,0.2615,-0.7718,-9.1065,-3.7057,0.0003,-0.0053,-0.0278
P1K,K,927303,0.7085,0.5908,0.0000,0.0000,0.1422,-0.9071,-9.1310,-3.7452,-0.0016,-0.0282,-0.0304
P1K,K,927323,0.7077,0.5887,0.0000,0.0000,0.1943,-0.8263,-9.0849,-3.7344,0.0060,-0.0260,-0.0246
P1K,K,927343,0.7081,0.5879,0.0000,0.0000,0.1500,-0.7910,-9.0855,-3.8733,0.0101,-0.0417,-0.0180
P1K,K,927363,0.7088,0.5883,0.0000,0.0000,0.2542,-0.7766,-9.1059,-3.8614,0.0115,-0.0416,-0.0076
P1K,K,927383,0.7062,0.5879,0.0000,0.0000,0.1911,-0.7041,-9.1023,-3.9596,0.0092,-0.0244,-0.0036
P1K,K,927403,0.7085,0.5858,0.0000,0.0000,0.2377,-0.6395,-9.0376,-3.9476,0.0028,-0.0153,0.0000
P1K,K,927423,0.7088,0.5925,0.0000,0.0000,0.2222,-0.7053,-9.1819,-3.9446,0.0009,-0.0149,-0.0035
P1K,K,927443,0.7073,0.5883,0.0000,0.0000,0.2405,-0.6886,-9.0819,-3.8913,-0.0173,0.0011,-0.0029
P1K,K,927463,0.7085,0.5849,0.0000,0.0000,0.2501,-0.6892,-9.1921,-3.8380,-0.0372,-0.0020,-0.0099
P1K,K,927483,0.7070,0.5883,0.0000,0.0000,0.1623,-0.8418,-9.2053,-3.6997,-0.0389,-0.0204,-0.0071
P1K,K,927503,0.7070,0.5883,0.0000,0.0000,0.1619,-0.7311,-9.1615,-3.5865,-0.0334,-0.0120,0.0004
P1K,K,927523,0.7081,0.5883,0.0000,0.0000,0.1774,-0.7760,-9.2011,-3.5075,-0.0132,-0.0297,0.0047
P1K,K,927543,0.7081,0.5892,0.0000,0.0000,0.2218,-0.7562,-9.1699,-3.5398,0.0160,-0.0270,0.0121
P1K,K,927563,0.7073,0.5837,0.0000,0.0000,0.2295,-0.6886,-9.1789,-3.5835,0.0341,-0.0322,0.0127
P1K,K,927583,0.7077,0.5879,0.0000,0.0000,0.2451,-0.6946,-9.2172,-3.7722,0.0338,-0.0338,0.0197
P1K,K,927603,0.7085,0.5870,0.0000,0.0000,0.1980,-0.6670,-9.0729,-3.8608,0.0257,-0.0135,0.0244
P1K,K,927623,0.7032,0.5875,0.0000,0.0000,0.2035,-0.5257,-9.1226,-3.8847,0.0272,0.0045,0.0246
P1K,K,927643,0.7055,0.5938,0.0000,0.0000,0.2505,-0.5131,-9.1125,-3.9171,0.0112,-0.0250,0.0063
P1K,K,927663,0.7073,0.5870,0.0000,0.0000,0.2286,-0.5700,-9.1592,-3.9075,-0.0045,-0.0289,-0.0057
P1K,K,927683,0.7062,0.5908,0.0000,0.0000,0.1948,-0.5515,-9.1406,-3.8404,-0.0191,-0.0497,-0.0248
P1K,K,927703,0.7077,0.5883,0.0000,0.0000,0.2309,-0.7287,-9.1328,-3.7434,-0.0143,-0.0317,-0.0152
P1K,K,927723,0.7062,0.5862,0.0000,0.0000,0.2697,-0.7149,-9.2184,-3.6859,-0.0052,0.0079,0.0077
P1K,K,927743,0.7070,0.5866,0.0000,0.0000,0.2473,-0.6401,-9.1849,-3.6512,-0.0012,0.0020,0.0052
P1K,K,927763,0.7088,0.5892,0.0000,0.0000,0.2300,-0.6993,-9.1717,-3.6428,0.0095,-0.0131,-0.0012
P1K,K,927783,0.7062,0.5896,0.0000,0.0000,0.2464,-0.7359,-9.1849,-3.7243,0.0116,0.0027,0.0009
P1K,K,927803,0.7081,0.5892,0.0000,0.0000,0.2949,-0.6598,-9.1226,-3.7177,0.0093,-0.0168,0.0011
P1K,K,927823,0.7073,0.5879,0.0000,0.0000,0.1482,-0.6550,-9.1148,-3.7871,0.0281,-0.0454,-0.0117
P1K,K,927843,0.7073,0.5950,0.0000,0.0000,0.2272,-0.7179,-9.2232,-3.8805,0.0228,-0.0588,-0.0099
P1K,K,927863,0.7092,0.5875,0.0000,0.0000,0.1555,-0.7383,-9.1508,-3.8512,0.0013,-0.0364,-0.0044
P1K,K,927883,0.7070,0.5870,0.0000,0.0000,0.1888,-0.6185,-9.1472,-3.8147,-0.0107,-0.0176,0.0068
P1K,K,927903,0.7066,0.5883,0.0000,0.0000,0.1989,-0.5215,-9.1849,-3.7763,-0.0156,-0.0408,0.0005
P1K,K,927923,0.7062,0.5913,0.0000,0.0000,0.2414,-0.5886,-9.2202,-3.8099,-0.0393,-0.0490,-0.0003
P1K,K,927943,0.7077,0.5900,0.0000,0.0000,0.2739,-0.5527,-9.1226,-3.7548,-0.0577,-0.0453,0.0063
P1K,K,927963,0.7066,0.5892,0.0000,0.0000,0.2848,-0.5544,-9.0394,-3.6859,-0.0434,-0.0268,-0.0120
