person_id,label,timestamp,flex1,flex2,flex3,flex4,flex5,ax,ay,az,gx,gy,gz
P1M,M,1138543,0.9937,0.9944,0.9898,1.0000,0.9822,-2.7926,-8.7700,-3.7751,0.0083,-0.0612,-0.0135
P1M,M,1138563,0.9945,0.9971,0.9941,0.9803,0.9716,-2.7124,-8.7891,-3.8093,0.0217,-0.0027,0.0009
P1M,M,1138583,0.9959,0.9931,0.9907,1.0000,1.0000,-2.7249,-8.8089,-3.8398,0.0027,-0.0314,0.0061
P1M,M,1138603,0.9945,0.9944,0.9902,0.9872,0.9566,-2.7537,-8.7891,-3.8183,-0.0091,-0.0215,0.0111
P1M,M,1138623,0.9930,0.9949,0.9937,1.0000,0.9610,-2.6651,-8.7993,-3.7638,-0.0132,-0.0176,0.0067
P1M,M,1138643,0.9930,0.9953,0.9902,0.9907,0.9597,-2.7483,-8.6802,-3.7177,0.0080,-0.0297,-0.0071
P1M,M,1138663,0.9963,0.9953,0.9670,0.9780,1.0000,-2.6812,-8.8047,-3.7356,0.0388,-0.0253,-0.0065
P1M,M,1138683,0.9945,0.9927,0.9756,0.9972,1.0000,-2.6818,-8.8448,-3.7476,0.0149,-0.0406,-0.0128
P1M,M,1138703,0.9930,0.9993,0.9911,0.9761,1.0000,-2.8141,-8.8340,-3.8033,0.0076,-0.0128,-0.0036
P1M,M,1138723,0.9992,0.9922,0.9863,1.0000,0.9650,-2.8231,-8.7191,-3.7859,0.0015,0.0092,0.0147
P1M,M,1138743,0.9937,0.9940,0.9894,0.9926,1.0000,-2.6704,-8.6987,-3.7267,0.0173,0.0278,0.0159
P1M,M,1138763,0.9937,0.9953,0.9937,1.0000,1.0000,-2.6842,-8.7628,-3.8051,0.0436,-0.0208,-0.0068
P1M,M,1138783,0.9923,1.0000,0.9786,0.9980,1.0000,-2.6740,-8.8544,-3.8254,0.0238,-0.0332,-0.0195
P1M,M,1138803,0.9941,0.9909,0.9932,0.9853,0.9795,-2.8213,-8.8011,-3.8153,0.0033,-0.0506,-0.0139
P1M,M,1138823,0.9923,0.9944,0.9885,0.9949,0.9415,-2.8668,-8.7676,-3.7650,-0.0125,-0.0356,0.0048
P1M,M,1138843,0.9927,0.9936,0.9863,0.9830,0.9406,-2.7333,-8.7957,-3.7943,-0.0067,-0.0356,0.0091
P1M,M,1138863,0.9923,0.9940,0.9907,0.9838,1.0000,-2.7267,-8.6981,-3.7201,0.0121,-0.0377,-0.0028
P1M,M,1138883,0.9927,0.9971,0.9881,1.0000,0.9787,-2.6872,-8.8191,-3.7728,0.0330,-0.0172,-0.0033
P1M,M,1138903,0.9941,0.9940,0.9907,1.0000,0.9650,-2.6585,-8.8676,-3.7596,0.0196,-0.0220,-0.0069
P1M,M,1138923,0.9930,0.9905,0.9717,0.9884,1.0000,-2.6764,-8.7945,-3.7668,0.0052,-0.0458,-0.0112
P1M,M,1138943,0.9934,0.9883,0.9924,0.9730,1.0000,-2.7052,-8.7502,-3.7392,0.0101,-0.0525,-0.0222
P1M,M,1138963,0.9941,0.9940,0.9876,1.0000,1.0000,-2.8740,-8.7430,-3.7638,0.0254,-0.0302,-0.0185
P1M,M,1138983,0.9908,0.9922,0.9799,1.0000,0.9844,-2.8303,-8.8334,-3.7674,0.0191,0.0056,0.0060
P1M,M,1139003,0.9923,0.9922,0.9993,1.0000,0.9389,-2.6896,-8.7897,-3.7763,-0.0008,-0.0266,0.0017
P1M,M,1139023,0.9901,0.9927,0.9988,0.9853,0.9243,-2.7627,-8.7544,-3.7680,-0.0177,-0.0637,-0.0117
P1M,M,1139043,0.9923,0.9905,0.9881,0.9807,1.0000,-2.9273,-8.6987,-3.7853,-0.0001,-0.0645,-0.0067
P1M,M,1139063,0.9905,0.9940,0.9894,0.9957,0.9451,-2.8028,-8.7813,-3.7231,0.0222,-0.0144,0.0091
P1M,M,1139083,0.9937,0.9936,0.9907,0.9834,1.0000,-2.5393,-8.8304,-3.6901,0.0238,-0.0262,0.0001
P1M,M,1139103,0.9905,0.9953,0.9889,0.9914,1.0000,-2.6896,-8.8053,-3.7225,0.0203,-0.0857,-0.0257
P1M,M,1139123,0.9952,0.9931,0.9803,0.9714,0.9756,-2.8309,-8.8005,-3.7344,0.0108,-0.0482,-0.0143
P1M,M,1139143,0.9923,0.9918,1.0000,0.9864,0.9809,-2.8082,-8.7155,-3.7356,0.0290,-0.0208,-0.0041
P1M,M,1139163,0.9923,0.9936,0.9963,0.9738,0.9486,-2.7094,-8.8071,-3.8033,0.0436,-0.0322,-0.0063
P1M,M,1139183,0.9927,0.9927,0.9907,0.9761,0.9685,-2.7860,-8.8113,-3.9093,0.0378,-0.0524,-0.0113
P1M,M,1139203,0.9923,0.9909,1.0000,0.9834,0.9950,-2.8908,-8.8233,-3.9206,-0.0008,-0.0237,0.0093
P1M,M,1139223,0.9941,0.9865,0.9807,0.9945,0.9163,-2.7315,-8.7376,-3.8955,-0.0289,0.0039,0.0248
P1M,M,1139243,0.9912,0.9931,0.9915,0.9791,1.0000,-2.7201,-8.6688,-3.7644,-0.0173,-0.0211,0.0143
P1M,M,1166903,0.8813,0.7554,0.5425,0.7030,0.7298,0.2664,-9.1568,3.2021,0.0079,-0.0370,0.0025
P1M,M,1166943,0.8809,0.7603,0.5347,0.6942,0.7506,0.2215,-9.1604,3.2932,0.0025,-0.0448,0.0057
P1M,M,1166963,0.8853,0.7643,0.5455,0.7042,0.7024,0.1754,-9.1687,3.3686,0.0144,-0.0394,0.0033
P1M,M,1166983,0.8813,0.7638,0.5524,0.6926,0.6374,0.1431,-9.1556,3.4111,0.0308,-0.0200,-0.0011
P1M,M,1167003,0.8798,0.7634,0.5571,0.7192,0.7192,0.2329,-9.1699,3.4452,0.0486,-0.0135,0.0009
P1M,M,1167023,0.8849,0.7634,0.5434,0.7045,0.7276,0.3012,-9.1867,3.3213,0.0537,-0.0305,0.0008
P1M,M,1167043,0.8813,0.7647,0.5451,0.6857,0.6569,0.3455,-9.1861,3.3225,0.0496,-0.0360,-0.0027
P1M,M,1167063,0.8791,0.7594,0.5425,0.7092,0.6564,0.3700,-9.0909,3.3381,0.0577,-0.0522,-0.0021
P1M,M,1167083,0.8816,0.7643,0.5403,0.6838,0.6378,0.2910,-9.0262,3.3009,0.1491,-0.0665,0.0060
P1M,M,1167103,0.8820,0.7744,0.5481,0.7115,0.6909,0.2281,-9.2585,3.1902,0.1932,-0.0480,-0.0033
P1M,M,1167123,0.8824,0.7599,0.5438,0.6992,0.6056,0.2335,-9.3627,2.9986,0.1339,-0.0156,-0.0116
P1M,M,1167143,0.8806,0.7647,0.5291,0.7038,0.7187,0.3269,-9.3394,2.8830,0.0241,-0.0211,-0.0185
P1M,M,1167163,0.8824,0.7625,0.5386,0.7134,0.7050,0.2575,-9.1777,2.9034,-0.0048,-0.0137,-0.0288
P1M,M,1167183,0.8773,0.7612,0.5261,0.7184,0.6635,0.2844,-9.2047,2.9704,0.0141,-0.0135,-0.0289
P1M,M,1167203,0.8806,0.7599,0.5399,0.6880,0.6993,0.1892,-9.1574,3.0602,0.0292,-0.0293,-0.0215
P1M,M,1167223,0.8791,0.7581,0.5429,0.7195,0.6635,0.2030,-9.2508,3.0698,-0.0084,-0.0426,-0.0108
P1M,M,1167243,0.8747,0.7638,0.5477,0.6830,0.6436,0.0862,-9.1705,3.1632,-0.0636,-0.0584,-0.0075
P1M,M,1167263,0.8765,0.7625,0.5231,0.6942,0.6639,0.0617,-9.0628,3.2979,-0.0241,-0.0248,-0.0108
P1M,M,1167283,0.8769,0.7616,0.5485,0.7038,0.6980,0.1623,-9.0867,3.3177,0.0301,0.0136,-0.0109
P1M,M,1167303,0.8806,0.7590,0.5253,0.7172,0.6679,0.3772,-9.1442,3.2321,0.0328,-0.0199,0.0048
P1M,M,1167323,0.8802,0.7607,0.5425,0.6995,0.6104,0.2263,-9.1268,3.1884,0.0127,-0.0711,0.0104
P1M,M,1167343,0.8784,0.7647,0.5347,0.6934,0.7019,0.1688,-9.2382,3.1866,0.0237,-0.0289,-0.0043
P1M,M,1167363,0.8795,0.7572,0.5403,0.7099,0.7055,0.2754,-9.2059,3.1704,0.0195,-0.0165,-0.0049
P1M,M,1167383,0.8732,0.7572,0.5429,0.6899,0.6219,0.2898,-9.2693,3.1812,0.0048,-0.0520,0.0072
P1M,M,1167403,0.8806,0.7576,0.5412,0.6934,0.6710,0.2898,-9.1903,3.1650,-0.0081,-0.0594,0.0043
P1M,M,1167423,0.8798,0.7625,0.5313,0.7011,0.6498,0.3263,-9.1526,3.2321,0.0057,-0.0715,0.0015
P1M,M,1167443,0.8791,0.7656,0.5390,0.7130,0.7086,0.1988,-9.2041,3.2351,0.0272,-0.0648,-0.0048
P1M,M,1167463,0.8827,0.7625,0.5408,0.7003,0.7156,0.2167,-9.2651,3.1728,0.0036,-0.0065,-0.0133
P1M,M,1167483,0.8809,0.7607,0.5287,0.7126,0.6887,0.3197,-9.1089,3.1991,-0.0149,-0.0025,-0.0180
P1M,M,1167503,0.8754,0.7603,0.5425,0.6980,0.7064,0.3084,-9.1412,3.1764,0.0205,-0.0305,-0.0095
P1M,M,1167523,0.8784,0.7599,0.5390,0.6953,0.6325,0.1647,-9.1765,3.1459,0.0412,-0.0356,-0.0249
P1M,M,1167543,0.8787,0.7612,0.5541,0.6884,0.6971,0.1790,-9.1909,3.1225,0.0338,-0.0204,-0.0205
P1M,M,1167563,0.8725,0.7612,0.5459,0.6845,0.6171,0.2808,-9.2196,3.0872,0.0183,-0.0442,-0.0137
P1M,M,1167583,0.8754,0.7585,0.5477,0.6907,0.7386,0.1156,-9.2059,3.1063,0.0189,-0.0597,-0.0145
P1M,M,1167603,0.8791,0.7559,0.5416,0.6938,0.6533,0.0772,-9.1801,3.1938,0.0149,-0.0249,-0.0169
P1M,M,1167623,0.8762,0.7585,0.5240,0.6888,0.6383,0.1790,-9.1645,3.2566,0.0377,-0.0119,-0.0051
P1M,M,1167643,0.8787,0.7634,0.5481,0.7095,0.7373,0.2257,-9.1358,3.2327,0.0436,-0.0370,0.0005
P1M,M,1167663,0.8780,0.7559,0.5429,0.6930,0.6405,0.2287,-9.2041,3.1734,0.0470,-0.0345,0.0009
P1M,M,1167683,0.8827,0.7594,0.5705,0.6980,0.7187,0.2832,-9.1861,3.1752,0.0180,-0.0498,0.0047
P1M,M,1167703,0.8773,0.7607,0.5365,0.7172,0.7002,0.2066,-9.1376,3.1423,0.0406,-0.0460,0.0019
P1M,M,1167723,0.8784,0.7594,0.5455,0.7049,0.6586,0.2850,-9.1783,3.0369,0.0337,-0.0376,-0.0087
P1M,M,1167743,0.8754,0.7581,0.5464,0.7138,0.7316,0.2940,-9.2106,3.0662,0.0176,-0.0203,-0.0105
P1M,M,1167763,0.8769,0.7572,0.5438,0.7057,0.6984,0.2814,-9.1975,3.1345,-0.0107,-0.0386,-0.0084
P1M,M,1167783,0.8765,0.7612,0.5438,0.6961,0.6392,0.2203,-9.1789,3.1668,0.0017,-0.0433,-0.0043
P1M,M,1167803,0.8776,0.7585,0.5399,0.7003,0.6843,0.1874,-9.2352,3.1495,0.0095,-0.0301,-0.0069
P1M,M,1167823,0.8729,0.7594,0.5490,0.6961,0.6343,0.1790,-9.1741,3.1668,-0.0104,-0.0346,-0.0061
P1M,M,1167843,0.8773,0.7599,0.5390,0.6945,0.6538,0.2862,-9.1663,3.2488,0.0141,-0.0232,-0.0020
P1M,M,1167863,0.8722,0.7594,0.5399,0.6999,0.6405,0.2766,-9.1400,3.2027,0.0318,-0.0525,0.0019
P1M,M,1167883,0.8765,0.7576,0.5110,0.7030,0.6458,0.2790,-9.2352,3.1099,0.0250,-0.0465,-0.0071
P1M,M,1167903,0.8787,0.7532,0.5317,0.6772,0.6551,0.2455,-9.1831,3.1057,0.0254,-0.0213,-0.0225
P1M,M,1167923,0.8780,0.7594,0.5425,0.6922,0.7002,0.3676,-9.2915,3.0345,-0.0007,-0.0207,-0.0209
P1M,M,1167943,0.8729,0.7607,0.5464,0.6895,0.6250,0.1976,-9.1999,2.9722,-0.0377,-0.0666,-0.0185
P1M,M,1167963,0.8813,0.7599,0.5576,0.6934,0.7271,0.1946,-9.1813,3.0584,-0.0115,-0.0437,-0.0161
P1M,M,1167983,0.8630,0.7528,0.5352,0.6880,0.6666,0.1748,-9.2190,3.1489,0.0027,-0.0402,-0.0095
P1M,M,1168003,0.8722,0.7576,0.5403,0.7057,0.6613,0.1551,-9.1604,3.2387,0.0053,-0.0378,-0.0019
P1M,M,1168023,0.8765,0.7581,0.5412,0.7022,0.7024,0.2353,-9.1304,3.2117,0.0181,-0.0276,-0.0015
P1M,M,1168043,0.8718,0.7590,0.5399,0.7145,0.7086,0.2988,-9.1148,3.1758,0.0293,-0.0336,0.0028
P1M,M,1168063,0.8787,0.7599,0.5472,0.6888,0.6502,0.2521,-9.0879,3.1489,0.0342,-0.0402,-0.0016
P1M,M,1168083,0.8732,0.7599,0.5378,0.7038,0.6639,0.2718,-9.2112,3.0806,0.0215,-0.0382,-0.0024
P1M,M,1168103,0.8776,0.7599,0.5434,0.6845,0.6330,0.2239,-9.2460,2.9704,0.0028,-0.0245,-0.0156
P1M,M,1168123,0.8769,0.7568,0.5434,0.6992,0.7174,0.3137,-9.2526,3.0315,-0.0029,-0.0168,-0.0207
P1M,M,1168143,0.8762,0.7603,0.5434,0.6992,0.7364,0.2317,-9.2765,3.0866,0.0108,-0.0554,-0.0105
P1M,M,1168163,0.8758,0.7590,0.5507,0.6968,0.6339,0.1413,-9.2741,3.0992,0.0020,-0.0564,-0.0135
P1M,M,1168183,0.8711,0.7616,0.5382,0.6945,0.6538,0.1790,-9.2597,3.1548,-0.0049,-0.0127,-0.0215
P1M,M,1168203,0.8784,0.7541,0.5222,0.6942,0.7090,0.2257,-9.1657,3.2578,-0.0175,-0.0213,-0.0160
P1M,M,1168223,0.8762,0.7568,0.5395,0.7211,0.6922,0.1760,-9.1717,3.2782,-0.0064,-0.0298,-0.0111
P1M,M,1168243,0.8754,0.7541,0.5485,0.6938,0.6365,0.2443,-9.1801,3.2494,0.0073,-0.0188,-0.0060
P1M,M,1168263,0.8696,0.7554,0.5434,0.6938,0.6794,0.2808,-9.1304,3.2441,0.0189,-0.0273,-0.0029
P1M,M,1168283,0.8871,0.7554,0.5481,0.7030,0.6392,0.2461,-9.1939,3.1572,0.0276,-0.0389,-0.0093
P1M,M,1168303,0.8754,0.7585,0.5632,0.7095,0.6365,0.2581,-9.1496,3.1483,0.0304,-0.0332,-0.0161
P1M,M,1168323,0.8784,0.7546,0.5322,0.7026,0.6414,0.2682,-9.2190,3.1255,0.0254,-0.0428,-0.0199
P1M,M,1168343,0.8754,0.7576,0.5455,0.6930,0.7572,0.1838,-9.1897,3.1369,0.0104,-0.0457,-0.0211
P1M,M,1168363,0.8725,0.7554,0.5442,0.6992,0.6374,0.1772,-9.2059,3.0734,0.0013,-0.0421,-0.0204
P1M,M,1168383,0.8718,0.7568,0.5438,0.6961,0.7059,0.1389,-9.1711,3.1387,0.0019,-0.0446,-0.0155
P1M,M,1168403,0.8729,0.7612,0.5425,0.6957,0.5985,0.1198,-9.1388,3.1680,0.0143,-0.0340,-0.0089
P1M,M,1168423,0.8732,0.7559,0.5464,0.7049,0.6900,0.2024,-9.1418,3.1944,0.0288,-0.0317,-0.0012
P1M,M,1168443,0.8776,0.7537,0.5442,0.6957,0.6339,0.2102,-9.1837,3.1572,0.0308,-0.0281,-0.0015
P1M,M,1168463,0.8732,0.7554,0.5382,0.7065,0.7095,0.2784,-9.1957,3.0992,0.0025,-0.0426,-0.0033
P1M,M,1168483,0.8747,0.7585,0.5434,0.6815,0.6321,0.2341,-9.1394,3.0758,0.0201,-0.0464,-0.0108
P1M,M,1168503,0.8736,0.7594,0.5399,0.6930,0.7055,0.1820,-9.2172,3.0668,0.0385,-0.0298,-0.0165
P1M,M,1168523,0.8707,0.7532,0.5386,0.6857,0.6462,0.1635,-9.2556,3.1303,0.0168,-0.0328,-0.0096
P1M,M,1168543,0.8732,0.7590,0.5222,0.7161,0.6949,0.1545,-9.2190,3.1004,0.0013,-0.0450,-0.0015
P1M,M,1168563,0.8722,0.7559,0.5446,0.6795,0.6370,0.1521,-9.2118,3.1273,0.0081,-0.0261,-0.0053
P1M,M,1168583,0.8725,0.7568,0.5403,0.6930,0.6555,0.2778,-9.1939,3.1680,0.0254,-0.0133,-0.0077
P1M,M,1168603,0.8736,0.7546,0.5446,0.7161,0.7227,0.3413,-9.1113,3.1794,0.0285,-0.0353,-0.0056
P1M,M,1168623,0.8736,0.7541,0.5382,0.6926,0.6493,0.3227,-9.1484,3.1027,0.0245,-0.0401,-0.0164
P1M,M,1168643,0.8696,0.7532,0.5502,0.6999,0.6401,0.3527,-9.1574,3.0668,0.0221,-0.0067,-0.0377
P1M,M,1168663,0.8725,0.7616,0.5416,0.7026,0.7245,0.4107,-9.1532,3.0920,0.0338,-0.0265,-0.0428
P1M,M,1168683,0.8762,0.7563,0.5610,0.6934,0.6489,0.2185,-9.1969,3.0806,0.0416,-0.0653,-0.0374
P1M,M,1168703,0.8729,0.7559,0.5261,0.6926,0.6405,0.1018,-9.2753,2.9980,0.0187,-0.0350,-0.0394
P1M,M,1168723,0.8736,0.7563,0.5399,0.6834,0.6485,0.1239,-9.2855,2.9758,-0.0120,-0.0089,-0.0520
P1M,M,1168743,0.8754,0.7581,0.5416,0.6965,0.6272,0.0635,-9.1963,3.0656,-0.0036,-0.0047,-0.0554
P1M,M,1168763,0.8795,0.7576,0.5434,0.7099,0.6542,0.0844,-9.2352,3.1105,0.0088,-0.0063,-0.0360
P1M,M,1168783,0.8718,0.7621,0.5395,0.6907,0.6060,0.1096,-9.1981,3.1159,0.0120,-0.0245,-0.0159
P1M,M,1168803,0.8751,0.7568,0.5425,0.6968,0.7152,0.0030,-9.1987,3.1447,-0.0069,-0.0458,-0.0075
P1M,M,1168823,0.8718,0.7541,0.5365,0.7057,0.7024,0.0335,-9.1939,3.2273,-0.0011,-0.0069,-0.0091
P1M,M,1168843,0.8711,0.7576,0.5403,0.7192,0.6887,0.1772,-9.1436,3.2375,0.0191,-0.0068,-0.0039
P1M,M,1168863,0.8689,0.7590,0.5403,0.6922,0.6586,0.2599,-9.1735,3.2087,0.0360,-0.0353,0.0107
P1M,M,1168883,0.8634,0.7510,0.5365,0.6922,0.6387,0.2299,-9.1657,3.1692,0.0164,-0.0405,0.0027
P1M,M,1168903,0.8773,0.7554,0.5300,0.6868,0.6286,0.3131,-9.2136,3.1542,-0.0027,-0.0312,-0.0061
P1M,M,1168923,0.8725,0.7594,0.5468,0.7111,0.7011,0.2269,-9.2304,3.0776,-0.0072,-0.0316,-0.0151
P1M,M,1168943,0.8685,0.7585,0.5434,0.6811,0.6440,0.2652,-9.2442,3.0740,-0.0031,-0.0123,-0.0288
P1M,M,1168963,0.8700,0.7515,0.5244,0.7034,0.6608,0.2916,-9.2226,3.0890,0.0055,-0.0378,-0.0242
P1M,M,1168983,0.8714,0.7576,0.5451,0.6968,0.6440,0.0545,-9.2202,3.1201,0.0148,-0.0616,-0.0238
P1M,M,1169003,0.8711,0.7563,0.5421,0.7318,0.7643,0.0713,-9.2490,3.1602,0.0121,-0.0197,-0.0286
P1M,M,1169023,0.8732,0.7532,0.5421,0.6965,0.6891,0.1299,-9.1538,3.2087,0.0091,-0.0213,-0.0256
P1M,M,1169043,0.8714,0.7554,0.5395,0.6961,0.7134,0.1437,-9.1172,3.1734,0.0456,-0.0445,-0.0125
P1M,M,1169063,0.8725,0.7576,0.5421,0.6888,0.6573,0.0497,-9.2256,3.1219,0.0725,-0.0393,-0.0125
P1M,M,1169083,0.8725,0.7479,0.5550,0.7218,0.6440,0.0892,-9.3106,3.0674,0.0357,-0.0292,-0.0141
P1M,M,1169103,0.8747,0.7554,0.5412,0.6945,0.6228,0.1114,-9.2100,3.0501,0.0111,-0.0203,-0.0092
P1M,M,1169123,0.8725,0.7563,0.5580,0.6799,0.7289,0.1647,-9.2268,3.0566,0.0141,-0.0334,-0.0052
P1M,M,1169143,0.8714,0.7550,0.5576,0.6953,0.6281,0.1683,-9.1879,2.9842,-0.0036,-0.0444,-0.0036
P1M,M,1169163,0.8762,0.7559,0.5360,0.7068,0.6900,0.2096,-9.1538,3.0501,-0.0040,-0.0417,-0.0029
P1M,M,1169183,0.8685,0.7550,0.5408,0.6895,0.6277,0.1605,-9.1184,3.0770,-0.0012,-0.0369,-0.0116
P1M,M,1169203,0.8725,0.7572,0.5352,0.6892,0.6989,0.1904,-9.1825,3.0285,-0.0076,-0.0249,-0.0077
P1M,M,1169223,0.8722,0.7563,0.5287,0.7126,0.6175,0.2108,-9.1789,2.9794,-0.0159,-0.0425,-0.0064
P1M,M,1169243,0.8740,0.7559,0.5373,0.7038,0.7081,0.1880,-9.1999,2.9986,-0.0007,-0.0701,-0.0007
P1M,M,1169263,0.8725,0.7519,0.5434,0.7188,0.7046,0.0701,-9.2621,2.9734,-0.0131,-0.0545,-0.0013
P1M,M,1169283,0.8703,0.7568,0.5421,0.6803,0.6498,0.1245,-9.2843,3.0560,-0.0217,-0.0120,-0.0165
P1M,M,1169303,0.8722,0.7532,0.5360,0.6980,0.6268,0.1742,-9.2681,3.1339,-0.0313,-0.0048,-0.0148
P1M,M,1169323,0.8747,0.7559,0.5498,0.7076,0.7289,0.1760,-9.2675,3.1758,-0.0357,-0.0290,-0.0057
P1M,M,1169343,0.8722,0.7537,0.5416,0.7011,0.6586,0.1413,-9.1789,3.3015,-0.0285,-0.0276,-0.0064
P1M,M,1169363,0.8725,0.7550,0.5412,0.6895,0.6325,0.2269,-9.2124,3.3027,-0.0011,-0.0464,-0.0013
P1M,M,1169383,0.8700,0.7585,0.5291,0.7111,0.6980,0.1521,-9.1526,3.3321,0.0103,-0.0518,-0.0119
P1M,M,1169403,0.8678,0.7563,0.5421,0.6888,0.5981,0.2545,-9.1963,3.2914,0.0073,-0.0349,-0.0180
P1M,M,1169423,0.8681,0.7532,0.5369,0.7018,0.6993,0.2072,-9.0831,3.2788,0.0270,-0.0372,-0.0225
P1M,M,1169443,0.8707,0.7546,0.5546,0.6853,0.6038,0.2281,-9.1604,3.2009,0.0211,-0.0384,-0.0289
P1M,M,1169463,0.8765,0.7559,0.5356,0.7026,0.6087,0.1862,-9.1172,3.1842,0.0325,-0.0234,-0.0342
P1M,M,1169483,0.8689,0.7488,0.5485,0.6822,0.6228,0.3293,-9.2256,3.1387,0.0377,-0.0617,-0.0241
P1M,M,1169503,0.8732,0.7563,0.5416,0.7030,0.7090,-0.0174,-9.1538,3.1566,-0.0217,-0.1054,-0.0249
P1M,M,1169523,0.8729,0.7563,0.5408,0.6938,0.7417,0.0287,-9.2448,3.2075,-0.0056,-0.0441,-0.0328
P1M,M,1169543,0.8725,0.7524,0.5386,0.6999,0.7002,0.0533,-9.1490,3.2518,-0.0228,-0.0501,-0.0297
P1M,M,1169563,0.8700,0.7559,0.5421,0.6961,0.6295,0.0012,-9.1759,3.2836,0.0151,-0.0521,-0.0289
P1M,M,1169583,0.8692,0.7519,0.5468,0.7180,0.7126,0.0108,-9.2268,3.2902,0.0281,-0.0478,-0.0298
P1M,M,1169603,0.8718,0.7572,0.5421,0.6995,0.6507,0.0096,-9.2094,3.1680,0.0171,-0.0721,-0.0258
P1M,M,1169623,0.8681,0.7541,0.5386,0.7199,0.7059,-0.0090,-9.2208,3.1303,0.0141,-0.0661,-0.0277
P1M,M,1169643,0.8696,0.7550,0.5408,0.6876,0.6392,-0.0665,-9.2077,3.1039,0.0216,-0.0521,-0.0329
P1M,M,1169663,0.8667,0.7563,0.5602,0.6992,0.7033,-0.0635,-9.1556,3.1465,0.0152,-0.0300,-0.0378
P1M,M,1169683,0.8732,0.7546,0.5399,0.7076,0.6582,-0.0144,-9.0196,3.2093,0.0293,-0.0329,-0.0328
P1M,M,1169703,0.8729,0.7585,0.5390,0.7034,0.7519,-0.1641,-9.0322,3.0962,0.0356,-0.0489,-0.0296
P1M,M,1169723,0.8758,0.7599,0.5352,0.6957,0.6330,-0.1724,-9.1107,3.0105,0.0354,-0.0432,-0.0160
P1M,M,1169743,0.8732,0.7537,0.5386,0.6999,0.7515,-0.1802,-9.1065,2.9902,0.0342,-0.0510,0.0027
P1M,M,1169763,0.8751,0.7546,0.5326,0.6949,0.6471,-0.1850,-9.1645,2.9058,0.0329,-0.0241,0.0039
P1M,M,1169783,0.8769,0.7537,0.5408,0.6895,0.7461,-0.0545,-9.1969,2.8555,-0.0095,-0.0147,0.0151
P1M,M,1169803,0.8751,0.7488,0.5386,0.6972,0.6135,0.0192,-9.1609,2.8782,-0.0437,-0.0510,0.0309
P1M,M,1169823,0.8784,0.7524,0.5421,0.6915,0.6745,-0.0431,-9.1418,2.9620,-0.0192,-0.0213,0.0233
P1M,M,1169843,0.8780,0.7488,0.5378,0.6818,0.6414,0.1323,-9.1190,3.0968,0.0055,0.0177,0.0139
P1M,M,1169863,0.8765,0.7594,0.5326,0.6742,0.6564,0.1461,-9.0999,3.2243,0.0384,-0.0023,0.0032
P1M,M,1169883,0.8795,0.7568,0.5378,0.6926,0.6211,0.1317,-9.1196,3.2997,0.0727,-0.0035,0.0152
P1M,M,1169903,0.8725,0.7537,0.5455,0.6845,0.6586,0.1796,-9.1843,3.3195,0.0846,0.0153,0.0276
P1M,M,1169923,0.8776,0.7502,0.5459,0.7165,0.6489,0.2293,-9.1963,3.2842,0.0653,-0.0071,0.0409
P1M,M,1169943,0.8795,0.7528,0.5451,0.6811,0.7298,0.1850,-9.2562,3.1740,0.0409,-0.0250,0.0465
P1M,M,1169963,0.8780,0.7528,0.5300,0.7092,0.6171,0.2844,-9.2693,3.0734,0.0011,-0.0113,0.0376
P1M,M,1169983,0.8813,0.7502,0.5451,0.7168,0.6060,0.2958,-9.2903,2.9986,-0.0157,-0.0265,0.0270
P1M,M,1170003,0.8696,0.7546,0.5434,0.6930,0.6272,0.2551,-9.2472,2.9573,-0.0177,-0.0362,0.0298
P1M,M,1170023,0.8762,0.7519,0.5214,0.7161,0.7139,0.3353,-9.3262,2.9578,-0.0222,-0.0338,0.0357
P1M,M,1170043,0.8798,0.7559,0.5192,0.6992,0.6639,0.2197,-9.2849,2.9944,-0.0436,-0.0450,0.0270
P1M,M,1170063,0.8678,0.7546,0.5283,0.7045,0.6794,0.2784,-9.2909,3.0884,-0.0457,-0.0258,0.0226
P1M,M,1170083,0.8776,0.7546,0.5369,0.7030,0.5919,0.2856,-9.1807,3.1806,-0.0425,-0.0246,0.0270
P1M,M,1170103,0.8729,0.7563,0.5472,0.6918,0.7612,0.2952,-9.1765,3.2333,-0.0021,-0.0115,0.0205
P1M,M,1170123,0.8736,0.7568,0.5395,0.6965,0.6493,0.3778,-9.2454,3.2129,0.0073,-0.0089,0.0080
P1M,M,1170143,0.8729,0.7497,0.5390,0.7007,0.6051,0.3575,-9.2957,3.1968,0.0248,-0.0047,-0.0011
P1M,M,1170163,0.8780,0.7563,0.5378,0.7095,0.6348,0.3581,-9.2406,3.1920,0.0222,-0.0069,-0.0129
P1M,M,1170183,0.8692,0.7594,0.5442,0.6826,0.6485,0.2988,-9.3322,3.1752,0.0112,0.0017,-0.0234
P1M,M,1170203,0.8743,0.7559,0.5378,0.6915,0.6993,0.2778,-9.2591,3.2033,0.0123,-0.0041,-0.0191
P1M,M,1170223,0.8714,0.7532,0.5412,0.6945,0.7126,0.2096,-9.2454,3.1896,0.0277,-0.0264,-0.0224
P1M,M,1170243,0.8784,0.7554,0.5395,0.7057,0.6595,0.1904,-9.3142,3.1812,-0.0001,-0.0366,-0.0248
P1M,M,1170263,0.8743,0.7554,0.5382,0.7011,0.6626,0.1551,-9.2418,3.1968,-0.0119,-0.0390,-0.0346
P1M,M,1170283,0.8762,0.7559,0.5378,0.6995,0.6993,0.2311,-9.1735,3.1920,-0.0049,-0.0362,-0.0465
P1M,M,1170303,0.8743,0.7541,0.5373,0.6903,0.6365,0.2593,-9.1747,3.2051,0.0064,-0.0405,-0.0536
P1M,M,1170323,0.8780,0.7550,0.5425,0.7018,0.7006,0.1964,-9.1472,3.2518,0.0053,-0.0638,-0.0624
P1M,M,1170343,0.8692,0.7541,0.5382,0.6930,0.6458,0.1102,-9.0412,3.2488,0.0354,-0.0608,-0.0754
P1M,M,1170363,0.8729,0.7519,0.5373,0.7057,0.6953,0.0713,-9.0909,3.2303,0.0493,-0.0436,-0.0670
P1M,M,1170383,0.8809,0.7515,0.5352,0.7003,0.7081,0.0832,-9.0735,3.1512,0.0456,-0.0508,-0.0517
P1M,M,1170403,0.8780,0.7541,0.5451,0.7026,0.7378,0.0383,-9.1538,3.0447,0.0474,-0.0517,-0.0325
P1M,M,1170423,0.8729,0.7599,0.5240,0.6957,0.6648,-0.0323,-9.1598,3.0111,0.0045,-0.0699,-0.0071
P1M,M,1170443,0.8784,0.7515,0.5434,0.6922,0.6224,-0.0216,-9.1891,2.9746,0.0120,-0.0485,0.0061
P1M,M,1170463,0.8762,0.7585,0.5352,0.6957,0.6635,0.0317,-9.2214,2.9902,0.0148,-0.0176,0.0053
P1M,M,1170483,0.8780,0.7537,0.5421,0.6980,0.7126,0.1461,-9.2304,3.0495,-0.0115,-0.0316,0.0165
P1M,M,1170503,0.8754,0.7581,0.5421,0.7003,0.7081,0.1473,-9.2196,3.1207,-0.0077,-0.0637,0.0277
P1M,M,1170523,0.8784,0.7532,0.5369,0.7122,0.6931,0.1395,-9.1993,3.1465,-0.0011,-0.0541,0.0226
P1M,M,1170543,0.8776,0.7563,0.5403,0.6938,0.6392,0.1808,-9.2274,3.1920,0.0220,-0.0220,0.0084
P1M,M,1170563,0.8747,0.7537,0.5257,0.6826,0.7258,0.3215,-9.2855,3.1716,0.0076,-0.0205,0.0057
P1M,M,1170583,0.8864,0.7524,0.5421,0.7007,0.6940,0.2748,-9.2184,3.1339,-0.0061,-0.0450,-0.0003
P1M,M,1170603,0.8795,0.7550,0.5403,0.6938,0.7024,0.2287,-9.2214,3.1524,0.0068,-0.0329,-0.0169
P1M,M,1170623,0.8769,0.7563,0.5395,0.7076,0.6882,0.2191,-9.2843,3.0908,0.0043,-0.0329,-0.0221
P1M,M,1170643,0.8751,0.7554,0.5352,0.6876,0.7285,0.2251,-9.3100,3.1225,-0.0328,-0.0422,-0.0233
P1M,M,1170663,0.8784,0.7563,0.5403,0.6999,0.6856,0.1251,-9.1657,3.1393,-0.0296,-0.0449,-0.0314
P1M,M,1170683,0.8747,0.7537,0.5192,0.6899,0.6246,0.1239,-9.2262,3.1979,-0.0103,-0.0324,-0.0277
P1M,M,1170703,0.8754,0.7590,0.5511,0.6868,0.6378,0.0425,-9.1071,3.1518,-0.0195,-0.0592,-0.0277
P1M,M,1170723,0.8747,0.7546,0.5309,0.6957,0.6056,0.0473,-9.1322,3.1896,0.0310,-0.0245,-0.0317
P1M,M,1170743,0.8776,0.7554,0.5373,0.6999,0.6989,0.0497,-9.2412,3.1279,-0.0089,-0.0496,-0.0152
P1M,M,1170763,0.8791,0.7546,0.5352,0.6861,0.7448,0.0066,-9.1298,3.1776,0.0129,-0.0318,-0.0065
P1M,M,1170783,0.8787,0.7546,0.5502,0.6980,0.7134,0.1898,-9.1693,3.0848,0.0024,-0.0143,-0.0099
P1M,M,1170803,0.8762,0.7550,0.5222,0.6926,0.6171,0.1623,-9.0759,3.1602,0.0328,-0.0213,-0.0136
P1M,M,1170823,0.8758,0.7519,0.5347,0.6984,0.7095,0.1958,-9.2316,3.0890,-0.0132,-0.0562,-0.0147
P1M,M,1170843,0.8773,0.7563,0.5403,0.6972,0.7333,-0.0030,-9.0514,3.1716,-0.0215,-0.0496,-0.0199
P1M,M,1170863,0.8736,0.7554,0.5369,0.6834,0.7391,0.0240,-9.1130,3.2207,0.0152,-0.0179,-0.0294
P1M,M,1170883,0.8722,0.7590,0.5373,0.6934,0.6281,0.0138,-9.1310,3.2051,0.0233,-0.0179,-0.0180
P1M,M,1170903,0.8754,0.7440,0.5511,0.7011,0.7165,0.0228,-9.1807,3.1141,0.0185,-0.0482,-0.0012
P1M,M,1170923,0.8700,0.7541,0.5490,0.7103,0.6281,-0.0090,-9.1101,3.1351,0.0237,-0.0458,0.0031
P1M,M,1170943,0.8700,0.7568,0.5265,0.7026,0.7011,0.0527,-9.1460,3.1171,0.0129,-0.0225,-0.0007
P1M,M,1170963,0.8722,0.7568,0.5408,0.6922,0.6370,0.0527,-9.1609,3.1231,0.0107,-0.0234,0.0072
P1M,M,1170983,0.8776,0.7554,0.5339,0.7022,0.7417,0.0886,-9.2005,3.1129,0.0087,-0.0296,0.0113
P1M,M,1171003,0.8743,0.7634,0.5434,0.6930,0.6241,0.0539,-9.2077,3.1542,-0.0037,-0.0293,0.0124
P1M,M,1171023,0.8718,0.7563,0.5386,0.6934,0.6427,0.1000,-9.2292,3.2009,-0.0005,-0.0314,0.0168
P1M,M,1171043,0.8765,0.7559,0.5352,0.6799,0.6551,0.1814,-9.2190,3.2411,-0.0091,-0.0409,0.0143
P1M,M,1171063,0.8776,0.7599,0.5395,0.6826,0.6343,0.1928,-9.1789,3.2997,0.0135,-0.0432,0.0095
P1M,M,1171083,0.8722,0.7563,0.5559,0.7084,0.7201,0.1425,-9.1891,3.2638,0.0284,-0.0302,0.0017
P1M,M,1171103,0.8743,0.7590,0.5287,0.7088,0.6648,0.2694,-9.2412,3.2375,0.0184,-0.0302,-0.0001
P1M,M,1171123,0.8696,0.7559,0.5395,0.6903,0.7134,0.1377,-9.2178,3.1842,0.0252,-0.0421,-0.0061
P1M,M,1171143,0.8754,0.7590,0.5356,0.6853,0.6502,0.1455,-9.2346,3.1099,0.0266,-0.0195,-0.0201
P1M,M,1171163,0.8696,0.7599,0.5253,0.7122,0.6962,0.2317,-9.2987,3.0686,0.0055,-0.0211,-0.0173
P1M,M,1171183,0.8776,0.7576,0.5597,0.7042,0.6803,0.1209,-9.1765,3.1734,-0.0021,-0.0497,-0.0184
P1M,M,1171203,0.8732,0.7537,0.5416,0.7011,0.7448,0.1162,-9.1981,3.1896,0.0079,-0.0560,-0.0203
P1M,M,1171223,0.8732,0.7594,0.5442,0.6792,0.6325,0.0509,-9.1867,3.2548,0.0080,-0.0500,-0.0188
P1M,M,1171243,0.8776,0.7559,0.5412,0.6872,0.6529,0.0413,-9.1226,3.2387,0.0073,-0.0453,-0.0195
P1M,M,1171263,0.8747,0.7568,0.5515,0.6807,0.6069,0.0599,-9.0729,3.1812,0.0297,-0.0321,-0.0191
P1M,M,1171283,0.8711,0.7616,0.5438,0.6961,0.7289,0.0868,-9.1280,3.1483,0.0421,-0.0304,-0.0089
P1M,M,1171303,0.8743,0.7563,0.5110,0.6934,0.6392,0.0635,-9.2238,3.0531,0.0342,-0.0465,0.0068
P1M,M,1171323,0.8751,0.7532,0.5309,0.7068,0.7236,0.0689,-9.2112,3.0752,0.0280,-0.0412,0.0015
P1M,M,1171343,0.8751,0.7537,0.5192,0.6834,0.6418,0.1317,-9.2005,3.0680,-0.0072,-0.0333,-0.0045
P1M,M,1171363,0.8762,0.7537,0.5373,0.7072,0.6834,0.1443,-9.1615,3.1165,-0.0285,-0.0290,-0.0093
P1M,M,1171383,0.8711,0.7546,0.5442,0.6826,0.6378,0.1096,-9.1208,3.1716,-0.0207,-0.0352,-0.0176
P1M,M,1171403,0.8758,0.7599,0.5365,0.6972,0.7417,0.1641,-9.1436,3.1734,-0.0049,-0.0384,-0.0099
P1M,M,1171423,0.8707,0.7559,0.5399,0.6988,0.6440,0.0677,-9.2232,3.1680,-0.0064,-0.0601,-0.0019
P1M,M,1171443,0.8747,0.7572,0.5326,0.6769,0.6427,0.0096,-9.2029,3.1477,-0.0089,-0.0481,0.0028
P1M,M,1171463,0.8754,0.7568,0.5429,0.6953,0.6268,0.0353,-9.2196,3.1459,-0.0045,-0.0293,-0.0015
P1M,M,1171483,0.8743,0.7528,0.5257,0.6934,0.7271,0.0952,-9.2059,3.2213,0.0151,-0.0053,-0.0068
P1M,M,1171503,0.8754,0.7563,0.5567,0.6938,0.6520,0.2179,-9.1879,3.2512,0.0213,-0.0199,-0.0027
P1M,M,1171523,0.8725,0.7563,0.5373,0.7030,0.6905,0.1443,-9.1951,3.1872,0.0284,-0.0326,-0.0032
P1M,M,1171543,0.8703,0.7563,0.5399,0.6949,0.6184,0.1545,-9.2394,3.1638,0.0268,-0.0228,-0.0123
P1M,M,1171563,0.8754,0.7524,0.5373,0.6938,0.5972,0.1694,-9.2196,3.1902,0.0037,-0.0268,-0.0155
P1M,M,1171583,0.8714,0.7607,0.5356,0.7030,0.6295,0.1060,-9.2077,3.1842,-0.0027,-0.0313,-0.0149
P1M,M,1171603,0.8754,0.7550,0.5416,0.6842,0.6838,0.0892,-9.1621,3.2201,-0.0044,-0.0404,-0.0128
P1M,M,1171623,0.8700,0.7546,0.5360,0.6992,0.6569,0.0527,-9.2130,3.2506,0.0148,-0.0400,-0.0111
P1M,M,1171643,0.8700,0.7581,0.5369,0.7099,0.7055,0.0874,-9.2148,3.2411,0.0140,-0.0412,-0.0100
P1M,M,1171663,0.8729,0.7537,0.5373,0.6992,0.6489,0.0473,-9.1861,3.2033,0.0056,-0.0488,-0.0020
P1M,M,1171683,0.8685,0.7546,0.5365,0.6938,0.6166,0.1365,-9.1771,3.1884,0.0123,-0.0517,-0.0023
P1M,M,1171703,0.8703,0.7532,0.5399,0.7080,0.6476,0.1233,-9.1502,3.1824,0.0356,-0.0592,0.0024
P1M,M,1171723,0.8689,0.7603,0.5347,0.7068,0.7187,0.1299,-9.2029,3.1979,0.0075,-0.0588,0.0033
P1M,M,1171743,0.8718,0.7546,0.5365,0.6918,0.6100,0.1748,-9.2029,3.1303,-0.0005,-0.0416,-0.0045
P1M,M,1171763,0.8689,0.7563,0.5468,0.6822,0.6909,0.1635,-9.1783,3.1848,0.0007,-0.0473,-0.0177
P1M,M,1171783,0.8732,0.7559,0.5550,0.7022,0.7050,0.0910,-9.1502,3.1872,0.0157,-0.0541,-0.0203
P1M,M,1171803,0.8692,0.7590,0.5412,0.7134,0.6851,0.0701,-9.2250,3.1201,0.0121,-0.0405,-0.0252
P1M,M,1171823,0.8725,0.7537,0.5498,0.6961,0.6171,0.0162,-9.1837,3.1010,0.0180,-0.0328,-0.0266
P1M,M,1171843,0.8685,0.7506,0.5365,0.6922,0.6303,0.0114,-9.2178,3.0824,0.0205,-0.0237,-0.0211
P1M,M,1171863,0.8659,0.7599,0.5412,0.7034,0.7015,0.0168,-9.2190,3.1315,0.0085,-0.0286,-0.0061
P1M,M,1171883,0.8729,0.7541,0.5494,0.6899,0.7099,0.0156,-9.1867,3.1979,0.0059,-0.0211,-0.0055
P1M,M,1171903,0.8692,0.7554,0.5235,0.7030,0.6343,0.1443,-9.1286,3.2183,0.0167,-0.0192,-0.0095
P1M,M,1171923,0.8700,0.7546,0.5399,0.7103,0.7294,0.1090,-9.0807,3.1932,0.0191,-0.0489,-0.0069
P1M,M,1171943,0.8714,0.7550,0.5382,0.7145,0.7369,0.0946,-9.1244,3.1854,0.0204,-0.0397,-0.0036
P1M,M,1171963,0.8674,0.7532,0.5378,0.6957,0.6250,0.1108,-9.1274,3.2237,0.0139,-0.0441,-0.0037
P1M,M,1171983,0.8674,0.7554,0.5339,0.7211,0.7024,0.0856,-9.1316,3.2033,0.0155,-0.0508,0.0028
P1M,M,1172003,0.8707,0.7532,0.5511,0.7049,0.6613,0.0269,-9.1586,3.1165,0.0205,-0.0409,0.0032
P1M,M,1172023,0.8725,0.7612,0.5584,0.6961,0.7351,0.0551,-9.1999,3.1243,0.0028,-0.0358,0.0021
P1M,M,1172043,0.8725,0.7524,0.5386,0.6907,0.6348,0.0413,-9.1825,3.1147,-0.0144,-0.0432,0.0043
P1M,M,1172063,0.8681,0.7524,0.5412,0.7026,0.6821,0.0856,-9.2394,3.1249,-0.0067,-0.0414,0.0035
P1M,M,1172083,0.8685,0.7510,0.5382,0.6892,0.6776,0.0689,-9.2220,3.1417,0.0021,-0.0418,0.0060
P1M,M,1172103,0.8663,0.7519,0.5373,0.7042,0.6997,0.0832,-9.2262,3.1680,-0.0032,-0.0610,0.0137
P1M,M,1172123,0.8700,0.7497,0.5304,0.6818,0.6493,0.0862,-9.2568,3.1614,-0.0011,-0.0404,0.0124
P1M,M,1172143,0.8685,0.7568,0.5339,0.6772,0.6524,0.1431,-9.2124,3.1938,-0.0117,-0.0378,0.0027
P1M,M,1172163,0.8696,0.7493,0.5378,0.6853,0.6392,0.1892,-9.2238,3.1626,0.0036,-0.0412,0.0020
P1M,M,1172183,0.8714,0.7572,0.5438,0.7245,0.7245,0.1078,-9.1933,3.1770,0.0144,-0.0422,-0.0080
P1M,M,1172203,0.8714,0.7537,0.5382,0.6934,0.6401,0.1503,-9.1951,3.1884,0.0029,-0.0241,-0.0128
