person_id,label,timestamp,flex1,flex2,flex3,flex4,flex5,ax,ay,az,gx,gy,gz
P1N,N,1234323,0.9956,0.9928,0.9897,1.0000,1.0000,-2.3687,-9.2933,-2.5381,0.0115,-0.0705,0.0000
P1N,N,1234343,0.9934,0.9958,1.0000,0.9968,0.9522,-2.3429,-9.3076,-2.5441,-0.0015,-0.0085,0.0145
P1N,N,1234363,0.9926,0.9949,0.9820,1.0000,0.9258,-2.1603,-9.2262,-2.4633,-0.0061,0.0125,0.0111
P1N,N,1234383,0.9974,0.9949,0.9915,1.0000,1.0000,-2.0932,-9.3466,-2.3663,0.0173,0.0136,0.0009
P1N,N,1234403,0.9934,0.9954,0.9942,0.9902,1.0000,-2.1130,-9.3825,-2.3268,0.0071,-0.0115,-0.0091
P1N,N,1234423,0.9926,0.9949,0.9874,1.0000,0.9641,-2.2358,-9.3585,-2.3310,0.0092,-0.0332,-0.0175
P1N,N,1234443,0.9908,0.9945,1.0000,1.0000,0.9740,-2.3070,-9.3280,-2.3759,0.0016,-0.0161,-0.0117
P1N,N,1234463,0.9922,0.9954,0.9933,1.0000,1.0000,-2.3501,-9.2987,-2.3723,0.0091,-0.0196,-0.0147
P1N,N,1234483,0.9952,0.9954,1.0000,1.0000,1.0000,-2.3705,-9.3184,-2.3956,0.0143,-0.0361,-0.0141
P1N,N,1234503,0.9908,0.9941,0.9915,1.0000,1.0000,-2.3274,-9.3136,-2.3741,0.0141,-0.0488,-0.0128
P1N,N,1234523,0.9915,0.9945,0.9924,0.9805,0.9636,-2.3447,-9.3484,-2.3806,0.0189,-0.0576,-0.0037
P1N,N,1234543,0.9915,0.9928,0.9974,1.0000,1.0000,-2.2860,-9.3172,-2.3190,0.0217,-0.0456,0.0001
P1N,N,1234563,0.9908,0.9941,0.9607,1.0000,0.9601,-2.2244,-9.3250,-2.3375,0.0217,-0.0512,0.0009
P1N,N,1234583,0.9908,0.9919,0.9625,0.9926,0.9367,-2.3130,-9.3843,-2.4094,0.0208,-0.0473,-0.0028
P1N,N,1234603,0.9915,0.9936,0.9911,0.9754,1.0000,-2.2435,-9.2556,-2.3920,0.0209,-0.0266,-0.0028
P1N,N,1234623,0.9900,0.9941,1.0000,1.0000,0.9382,-2.2310,-9.2975,-2.4651,0.0322,-0.0537,-0.0088
P1N,N,1234643,0.9915,0.9958,1.0000,1.0000,1.0000,-2.3765,-9.3250,-2.5699,0.0171,-0.0446,-0.0016
P1N,N,1234663,0.9867,0.9928,0.9861,0.9949,0.9039,-2.3028,-9.2795,-2.5244,0.0007,-0.0071,-0.0027
P1N,N,1234683,0.9934,0.9915,0.9979,0.9844,0.9785,-2.1633,-9.3106,-2.4866,-0.0032,-0.0261,-0.0025
P1N,N,1234703,0.9930,0.9945,0.9988,0.9859,1.0000,-2.2298,-9.2855,-2.4100,-0.0037,-0.0446,-0.0079
P1N,N,1234723,0.9919,0.9906,1.0000,0.9852,1.0000,-2.2399,-9.3035,-2.3765,0.0100,-0.0353,-0.0100
P1N,N,1234743,0.9919,0.9936,0.9947,1.0000,1.0000,-2.2363,-9.3831,-2.3998,0.0019,-0.0147,-0.0099
P1N,N,1234763,0.9908,0.9941,0.9924,0.9972,0.9273,-2.2375,-9.3130,-2.3627,-0.0060,-0.0089,-0.0100
P1N,N,1234783,0.9948,0.9924,1.0000,1.0000,0.9726,-2.2088,-9.2969,-2.3274,0.0040,-0.0284,-0.0155
P1N,N,1234803,0.9926,0.9941,0.9852,0.9918,0.9467,-2.3657,-9.3346,-2.3806,0.0188,-0.0429,-0.0193
P1N,N,1234823,0.9915,0.9928,1.0000,1.0000,0.9512,-2.3639,-9.2963,-2.4046,0.0164,-0.0249,-0.0129
P1N,N,1234843,0.9900,0.9932,0.9671,1.0000,1.0000,-2.3938,-9.3364,-2.4040,0.0048,-0.0181,-0.0060
P1N,N,1234863,0.9930,0.9928,0.9969,0.9976,0.9343,-2.3765,-9.2633,-2.3795,0.0012,0.0031,0.0037
P1N,N,1234883,0.9904,0.9932,1.0000,1.0000,0.9706,-2.2657,-9.2837,-2.3854,0.0101,0.0047,0.0116
P1N,N,1234903,0.9941,0.9924,0.9906,0.9906,0.9363,-2.0885,-9.3238,-2.4046,0.0193,-0.0682,-0.0065
P1N,N,1234923,0.9915,0.9911,0.9779,0.9786,1.0000,-2.3812,-9.3514,-2.4411,0.0079,-0.0898,-0.0203
P1N,N,1234943,0.9889,0.9932,0.9920,0.9918,0.9442,-2.3226,-9.3023,-2.3980,-0.0039,-0.0168,-0.0035
P1N,N,1234963,0.9900,0.9949,0.9843,0.9980,1.0000,-2.1962,-9.2891,-2.3633,0.0139,-0.0232,-0.0011
P1N,N,1234983,0.9937,0.9911,0.9911,1.0000,0.9581,-2.2621,-9.3196,-2.3944,0.0217,-0.0520,-0.0137
P1N,N,1235003,0.9911,0.9949,0.9951,0.9681,1.0000,-2.3621,-9.3011,-2.4244,0.0265,-0.0332,-0.0152
P1N,N,1248963,0.9105,0.4599,0.5370,0.5837,0.5588,0.0042,-9.5190,2.3148,0.0476,-0.0898,0.0080
P1N,N,1249003,0.9087,0.4608,0.5357,0.5775,0.5295,0.1832,-9.4244,2.4004,-0.0111,-0.0454,0.0345
P1N,N,1249023,0.9094,0.4599,0.5298,0.5919,0.6404,0.0862,-9.4394,2.4603,-0.0165,-0.1234,0.0552
P1N,N,1249043,0.9083,0.4599,0.5456,0.5904,0.6498,-0.0599,-9.4813,2.4747,-0.0211,-0.1033,0.0572
P1N,N,1249063,0.9142,0.4612,0.5475,0.5849,0.6280,0.0222,-9.3621,2.4992,0.0288,-0.0081,0.0420
P1N,N,1249083,0.9102,0.4608,0.5366,0.5655,0.6354,0.2814,-9.4160,2.4058,0.0434,0.0258,0.0297
P1N,N,1249103,0.9109,0.4582,0.5452,0.5592,0.6265,0.5233,-9.3891,2.3196,0.0480,-0.0457,0.0400
P1N,N,1249123,0.9120,0.4586,0.5542,0.5666,0.6215,0.3126,-9.4783,2.2100,0.0336,-0.1175,0.0417
P1N,N,1249143,0.9120,0.4659,0.5316,0.5966,0.5618,0.2245,-9.5495,2.2453,0.0115,-0.0416,0.0136
P1N,N,1249163,0.9098,0.4621,0.5447,0.5837,0.5583,0.4772,-9.4028,2.3178,-0.0225,-0.0108,0.0061
P1N,N,1249183,0.9087,0.4625,0.5361,0.5818,0.5146,0.3581,-9.4094,2.3753,-0.0067,-0.0771,-0.0003
P1N,N,1249203,0.9094,0.4599,0.5375,0.6001,0.6762,0.1305,-9.3975,2.4351,-0.0001,-0.0659,-0.0167
P1N,N,1249223,0.9131,0.4621,0.5334,0.5950,0.6116,0.1455,-9.4448,2.4735,-0.0004,0.0045,-0.0266
P1N,N,1249243,0.9094,0.4595,0.5370,0.5682,0.5539,0.1659,-9.4298,2.5088,-0.0179,0.0189,-0.0237
P1N,N,1249263,0.9102,0.4633,0.5339,0.6036,0.6150,0.2191,-9.3573,2.5609,-0.0064,0.0040,-0.0207
P1N,N,1249283,0.9124,0.4612,0.5425,0.5865,0.5206,0.1916,-9.4364,2.5070,0.0289,-0.0360,-0.0071
P1N,N,1249303,0.9105,0.4655,0.5312,0.5950,0.6454,0.0730,-9.4178,2.4567,0.0408,-0.0440,-0.0032
P1N,N,1249323,0.9109,0.4560,0.5398,0.5764,0.5688,0.0880,-9.5064,2.4088,0.0204,-0.0137,0.0051
P1N,N,1249343,0.9102,0.4612,0.5352,0.5818,0.6702,0.2778,-9.4801,2.4046,-0.0151,-0.0238,0.0145
P1N,N,1249363,0.9139,0.4633,0.5307,0.5904,0.5509,0.2545,-9.3705,2.4315,-0.0209,-0.0678,0.0168
P1N,N,1249383,0.9098,0.4608,0.5348,0.5911,0.6454,0.1389,-9.3687,2.4399,0.0175,-0.0506,0.0065
P1N,N,1249403,0.9120,0.4552,0.5389,0.5736,0.5887,0.2545,-9.4064,2.4902,0.0396,-0.0131,0.0004
P1N,N,1249423,0.9017,0.4504,0.5461,0.5857,0.5792,0.3233,-9.4543,2.4537,0.0139,-0.0284,-0.0021
P1N,N,1249443,0.9094,0.4603,0.5384,0.5857,0.6618,0.2778,-9.4016,2.4124,-0.0009,-0.0488,0.0032
P1N,N,1249463,0.9109,0.4603,0.5411,0.5775,0.5877,0.1820,-9.3873,2.4525,0.0123,-0.0442,-0.0044
P1N,N,1249483,0.9083,0.4621,0.5140,0.5791,0.6528,0.2275,-9.3340,2.4663,0.0702,-0.0125,-0.0184
P1N,N,1249503,0.9087,0.4599,0.5461,0.6238,0.5345,0.2179,-9.4693,2.3621,0.0853,-0.0215,-0.0199
P1N,N,1249523,0.9117,0.4603,0.5402,0.6114,0.6359,0.2563,-9.5226,2.2591,0.0165,-0.0420,-0.0079
P1N,N,1249543,0.9098,0.4621,0.5330,0.5853,0.6827,0.2299,-9.4741,2.2615,-0.0530,-0.0747,-0.0013
P1N,N,1249563,0.9102,0.4586,0.5434,0.5802,0.6558,0.0587,-9.4466,2.3585,-0.0673,-0.0917,-0.0057
P1N,N,1249583,0.9113,0.4612,0.5389,0.5767,0.5733,-0.0204,-9.3861,2.3705,-0.0380,-0.0915,0.0060
P1N,N,1249603,0.9105,0.4616,0.5366,0.6055,0.5892,-0.1162,-9.4436,2.4004,-0.0105,-0.0574,0.0132
P1N,N,1249623,0.9072,0.4625,0.5429,0.5997,0.6275,0.0419,-9.4693,2.4537,-0.0180,-0.0136,0.0324
P1N,N,1249643,0.9113,0.4590,0.5461,0.5876,0.6469,0.2527,-9.3981,2.4345,-0.0211,-0.0376,0.0409
P1N,N,1249663,0.9117,0.4616,0.5076,0.6047,0.6275,0.2012,-9.4148,2.4369,-0.0221,-0.0506,0.0441
P1N,N,1249683,0.9105,0.4603,0.5348,0.5954,0.5772,0.3796,-9.3669,2.4603,-0.0540,-0.0321,0.0372
P1N,N,1249703,0.9109,0.4633,0.5312,0.5958,0.6687,0.4413,-9.3915,2.5728,-0.0237,-0.0653,0.0220
P1N,N,1249723,0.9094,0.4578,0.5366,0.5872,0.6295,0.3066,-9.3591,2.5106,-0.0262,-0.0751,0.0164
P1N,N,1249743,0.9109,0.4621,0.5280,0.5935,0.5782,0.3042,-9.3508,2.5603,-0.0096,-0.0276,0.0051
P1N,N,1249763,0.9087,0.4599,0.5348,0.5728,0.5902,0.4191,-9.3681,2.6016,-0.0052,-0.0204,-0.0067
P1N,N,1249783,0.9128,0.4612,0.5447,0.5538,0.6633,0.3712,-9.3801,2.6339,-0.0181,-0.0472,-0.0107
P1N,N,1249803,0.9113,0.4672,0.5248,0.5919,0.6339,0.2784,-9.3549,2.6357,-0.0116,-0.0369,-0.0318
P1N,N,1249823,0.9083,0.4629,0.5375,0.6094,0.6394,0.2485,-9.4382,2.6225,0.0112,-0.0236,-0.0337
P1N,N,1249843,0.9083,0.4625,0.5493,0.5950,0.5385,0.1329,-9.3651,2.5669,-0.0091,-0.0276,-0.0246
P1N,N,1249863,0.9069,0.4603,0.5384,0.5896,0.6653,0.0677,-9.3699,2.5447,0.0039,-0.0269,-0.0157
P1N,N,1249883,0.9072,0.4582,0.5334,0.6001,0.6434,0.0766,-9.4058,2.5381,0.0406,-0.0215,-0.0117
P1N,N,1249903,0.9102,0.4582,0.5384,0.5802,0.6588,0.1192,-9.5094,2.4429,0.0524,-0.0377,0.0073
P1N,N,1249923,0.9080,0.4578,0.5330,0.5888,0.6419,0.1617,-9.4567,2.4549,0.0100,-0.0481,0.0149
P1N,N,1249943,0.9109,0.4621,0.5379,0.5861,0.6444,0.2802,-9.3933,2.4705,-0.0016,-0.0494,0.0176
P1N,N,1249963,0.9113,0.4582,0.5443,0.5725,0.5723,0.2802,-9.3699,2.5130,0.0032,-0.0473,0.0061
P1N,N,1249983,0.9069,0.4599,0.5389,0.5764,0.6125,0.3449,-9.4136,2.5160,0.0157,-0.0253,-0.0015
P1N,N,1250003,0.9117,0.4621,0.5407,0.5974,0.5534,0.3970,-9.3783,2.4932,0.0127,-0.0625,0.0040
P1N,N,1250023,0.9098,0.4616,0.5321,0.5977,0.6419,0.2587,-9.4052,2.5016,0.0180,-0.0731,0.0029
P1N,N,1250043,0.9102,0.4590,0.5312,0.6063,0.5206,0.2964,-9.4621,2.4782,0.0051,-0.0317,-0.0064
P1N,N,1250063,0.9080,0.4586,0.5316,0.5857,0.6593,0.3203,-9.3627,2.5297,0.0041,-0.0229,-0.0209
P1N,N,1250083,0.9094,0.4625,0.5447,0.5935,0.5449,0.2856,-9.4005,2.4621,0.0211,-0.0354,-0.0260
P1N,N,1250103,0.9109,0.4603,0.5389,0.5760,0.6354,0.2976,-9.3963,2.4327,0.0061,-0.0440,-0.0248
P1N,N,1250123,0.9098,0.4586,0.5579,0.5974,0.6807,0.2886,-9.4034,2.4459,-0.0044,-0.0754,-0.0237
P1N,N,1250143,0.9102,0.4603,0.5447,0.6020,0.6334,0.0581,-9.4124,2.4561,-0.0053,-0.0701,-0.0272
P1N,N,1250163,0.9098,0.4621,0.5343,0.5939,0.6300,0.0856,-9.3795,2.5303,-0.0009,-0.0148,-0.0183
P1N,N,1250183,0.9094,0.4599,0.5488,0.5748,0.5966,0.2036,-9.3879,2.5525,0.0215,-0.0353,-0.0035
P1N,N,1250203,0.9087,0.4582,0.5407,0.5857,0.6588,0.1838,-9.3891,2.5693,0.0405,-0.0524,0.0029
P1N,N,1250223,0.9083,0.4608,0.5370,0.5977,0.6225,0.1934,-9.4759,2.5058,0.0157,-0.0365,0.0021
P1N,N,1250243,0.9098,0.4603,0.5402,0.5880,0.6265,0.2652,-9.3639,2.4902,-0.0189,-0.0137,-0.0060
P1N,N,1250263,0.9124,0.4621,0.5443,0.5705,0.5892,0.3563,-9.3783,2.5543,-0.0205,-0.0246,-0.0119
P1N,N,1250283,0.9098,0.4578,0.5407,0.5795,0.5827,0.2958,-9.2987,2.5603,0.0221,-0.0530,-0.0179
P1N,N,1250303,0.9117,0.4590,0.5402,0.5732,0.5872,0.1850,-9.5076,2.5357,0.0373,-0.0498,-0.0171
P1N,N,1250323,0.9091,0.4629,0.5420,0.5904,0.6672,0.1671,-9.4561,2.5315,-0.0140,-0.0341,-0.0124
P1N,N,1250343,0.9087,0.4582,0.5579,0.5927,0.5583,0.2676,-9.3172,2.6052,-0.0233,-0.0349,-0.0049
P1N,N,1250363,0.9117,0.4608,0.5325,0.6040,0.6429,0.1407,-9.3651,2.4956,0.0218,-0.0462,-0.0081
P1N,N,1250383,0.9102,0.4612,0.5393,0.5678,0.5862,0.2030,-9.3621,2.5238,0.0338,-0.0068,-0.0228
P1N,N,1250403,0.9128,0.4603,0.5393,0.5530,0.6295,0.1443,-9.3771,2.5052,0.0502,-0.0302,-0.0149
P1N,N,1250423,0.9087,0.4603,0.5434,0.5935,0.6359,0.1108,-9.5358,2.3998,0.0155,0.0081,-0.0165
P1N,N,1250443,0.9065,0.4603,0.5606,0.5717,0.6439,0.3539,-9.3627,2.4256,-0.0338,-0.0115,-0.0196
P1N,N,1250463,0.9091,0.4625,0.5407,0.5775,0.6508,0.1665,-9.4442,2.4321,-0.0009,-0.0723,-0.0083
P1N,N,1250483,0.9102,0.4633,0.5434,0.5814,0.6662,0.1263,-9.4304,2.4812,0.0073,-0.0256,-0.0101
P1N,N,1250503,0.9091,0.4556,0.5456,0.5818,0.5802,0.3539,-9.4052,2.5357,-0.0417,-0.0329,-0.0129
P1N,N,1250523,0.9102,0.4569,0.5389,0.5818,0.5887,0.1557,-9.2687,2.6196,-0.0217,-0.0769,-0.0049
P1N,N,1250543,0.9128,0.4599,0.5266,0.5830,0.6290,0.0808,-9.4789,2.5693,-0.0043,-0.0099,-0.0067
P1N,N,1250563,0.9109,0.4616,0.5271,0.5950,0.5758,0.3922,-9.2969,2.5920,-0.0313,-0.0193,-0.0123
P1N,N,1250583,0.9080,0.4586,0.5416,0.5779,0.5877,0.1227,-9.3909,2.6052,0.0133,-0.0785,-0.0080
P1N,N,1250603,0.9083,0.4586,0.5411,0.5760,0.6568,0.0533,-9.3376,2.6004,0.0410,-0.0199,-0.0083
P1N,N,1250623,0.9105,0.4603,0.5370,0.5907,0.6295,0.2718,-9.3843,2.5806,0.0566,-0.0132,-0.0075
P1N,N,1250643,0.9102,0.4603,0.5497,0.5736,0.5807,0.2179,-9.4975,2.4723,0.0382,-0.0677,0.0047
P1N,N,1250663,0.9087,0.4599,0.5456,0.5592,0.5862,0.1305,-9.4166,2.4291,0.0024,-0.0594,0.0047
P1N,N,1250683,0.9076,0.4603,0.5407,0.5787,0.6598,0.2251,-9.3819,2.4321,-0.0003,-0.0310,0.0017
P1N,N,1250703,0.9117,0.4612,0.5456,0.5818,0.5544,0.3090,-9.3885,2.5160,0.0244,-0.0217,-0.0085
P1N,N,1250723,0.9076,0.4603,0.5425,0.5620,0.6951,0.2275,-9.4412,2.5040,0.0281,-0.0397,-0.0064
P1N,N,1250743,0.9102,0.4612,0.5352,0.5950,0.6290,0.2245,-9.4286,2.4681,-0.0199,-0.0238,-0.0056
P1N,N,1250763,0.9109,0.4599,0.5352,0.5647,0.6250,0.1880,-9.3795,2.4854,-0.0369,-0.0165,-0.0033
P1N,N,1250783,0.9109,0.4621,0.5597,0.5966,0.6464,0.3203,-9.3549,2.5154,-0.0144,-0.0115,-0.0139
P1N,N,1250803,0.9091,0.4586,0.5683,0.5896,0.5892,0.2533,-9.3693,2.5112,0.0060,-0.0481,-0.0099
P1N,N,1250823,0.9076,0.4612,0.5425,0.5826,0.5762,0.3036,-9.4016,2.5633,0.0064,-0.0552,-0.0075
P1N,N,1250843,0.9091,0.4616,0.5411,0.5942,0.6493,0.1407,-9.4005,2.5130,-0.0057,-0.0652,-0.0135
P1N,N,1250863,0.9117,0.4612,0.5189,0.6102,0.6434,0.1700,-9.4789,2.5519,-0.0040,0.0069,-0.0284
P1N,N,1250883,0.9083,0.4616,0.5434,0.5779,0.5400,0.3593,-9.3041,2.5986,-0.0324,-0.0085,-0.0209
P1N,N,1250903,0.9072,0.4578,0.5452,0.5904,0.6503,0.1497,-9.3909,2.6285,0.0127,-0.0785,-0.0052
P1N,N,1250923,0.9076,0.4612,0.5361,0.5767,0.5554,0.0395,-9.3047,2.5890,-0.0185,-0.0296,-0.0165
P1N,N,1250943,0.9094,0.4616,0.5456,0.5845,0.6742,0.2329,-9.3933,2.6196,0.0201,-0.0080,-0.0163
P1N,N,1250963,0.9087,0.4625,0.5402,0.5760,0.6991,0.1084,-9.3340,2.5591,-0.0012,-0.0553,-0.0084
P1N,N,1250983,0.9135,0.4586,0.5429,0.5771,0.6822,0.1042,-9.4448,2.5597,0.0248,-0.0344,-0.0015
P1N,N,1251003,0.9094,0.4616,0.5370,0.5799,0.6603,0.1886,-9.3993,2.5591,0.0191,-0.0494,0.0005
P1N,N,1251023,0.9120,0.4629,0.5393,0.5845,0.6672,0.0623,-9.4412,2.5615,0.0473,-0.0570,0.0055
P1N,N,1251043,0.9080,0.4638,0.5248,0.5923,0.6533,0.1473,-9.3921,2.5549,0.0496,-0.0349,0.0143
P1N,N,1251063,0.9091,0.4599,0.5348,0.5748,0.6304,0.2485,-9.4430,2.5453,0.0217,-0.0500,0.0242
P1N,N,1251083,0.9057,0.4642,0.5402,0.6055,0.5723,0.2563,-9.3316,2.5315,0.0113,-0.0442,0.0160
P1N,N,1251103,0.9069,0.4629,0.5393,0.5709,0.6419,0.2964,-9.3424,2.5399,0.0320,-0.0285,0.0041
P1N,N,1251123,0.9102,0.4608,0.5425,0.5892,0.6240,0.3407,-9.3939,2.5315,0.0392,-0.0342,-0.0047
P1N,N,1251143,0.9102,0.4603,0.5389,0.5876,0.5564,0.2724,-9.4214,2.4956,0.0017,-0.0508,-0.0057
P1N,N,1251163,0.9076,0.4595,0.5248,0.5880,0.6503,0.1964,-9.4016,2.4250,-0.0226,-0.0405,-0.0084
P1N,N,1251183,0.9054,0.4612,0.5420,0.5802,0.5419,0.2545,-9.3747,2.4286,-0.0187,-0.0270,-0.0147
P1N,N,1251203,0.9102,0.4419,0.5357,0.5896,0.6772,0.1880,-9.4028,2.4699,-0.0049,-0.0546,-0.0096
P1N,N,1251223,0.9065,0.4565,0.5416,0.5713,0.5976,0.1491,-9.3819,2.5064,0.0123,-0.0663,-0.0041
P1N,N,1251243,0.9094,0.4595,0.5570,0.5725,0.5235,0.1431,-9.4286,2.5525,0.0246,-0.0478,-0.0033
P1N,N,1251263,0.9094,0.4595,0.5284,0.5927,0.6280,0.1700,-9.3933,2.5675,0.0272,-0.0364,-0.0041
P1N,N,1251283,0.9087,0.4578,0.5443,0.5542,0.6563,0.1766,-9.3987,2.5477,0.0049,-0.0226,0.0017
P1N,N,1251303,0.9098,0.4573,0.5361,0.5771,0.6329,0.2772,-9.3591,2.5561,-0.0147,-0.0288,0.0029
P1N,N,1251323,0.9094,0.4586,0.5289,0.5709,0.5519,0.2389,-9.3609,2.5633,-0.0053,-0.0376,0.0036
P1N,N,1251343,0.9065,0.4573,0.5452,0.5771,0.6662,0.2712,-9.3789,2.5830,0.0080,-0.0318,-0.0052
P1N,N,1251363,0.9168,0.4582,0.5452,0.5802,0.5613,0.2796,-9.3675,2.6124,0.0228,-0.0536,-0.0020
P1N,N,1251383,0.9076,0.4612,0.5447,0.5841,0.5961,0.1880,-9.4412,2.5770,0.0160,-0.0500,0.0011
P1N,N,1251403,0.9087,0.4603,0.5479,0.5869,0.6658,0.1671,-9.3621,2.5489,0.0041,-0.0137,-0.0056
P1N,N,1251423,0.9087,0.4603,0.5574,0.5806,0.6389,0.3084,-9.3585,2.5764,0.0222,-0.0049,-0.0103
P1N,N,1251443,0.9083,0.4599,0.5434,0.5830,0.5758,0.2976,-9.4196,2.5273,0.0203,-0.0290,-0.0060
P1N,N,1251463,0.9072,0.4556,0.5552,0.5760,0.5932,0.3018,-9.3651,2.5555,0.0213,-0.0381,-0.0160
P1N,N,1251483,0.9069,0.4608,0.5366,0.5787,0.5633,0.2371,-9.3933,2.5615,0.0137,-0.0441,-0.0099
P1N,N,1251503,0.9124,0.4612,0.5407,0.5861,0.5623,0.2281,-9.3723,2.5495,0.0120,-0.0382,-0.0136
P1N,N,1251523,0.9091,0.4595,0.5407,0.5674,0.5946,0.2167,-9.3957,2.4663,0.0037,-0.0460,-0.0133
P1N,N,1251543,0.9142,0.4612,0.5484,0.5775,0.5230,0.1257,-9.3879,2.5645,0.0155,-0.0277,-0.0207
P1N,N,1251563,0.9076,0.4573,0.5366,0.5818,0.6399,0.2024,-9.4454,2.4842,0.0019,-0.0230,-0.0093
P1N,N,1251583,0.9091,0.4586,0.5533,0.5701,0.6280,0.1994,-9.3657,2.5321,0.0072,-0.0505,-0.0012
P1N,N,1251603,0.9072,0.4590,0.5425,0.5705,0.6543,0.1712,-9.4711,2.5070,-0.0035,-0.0432,0.0020
P1N,N,1251623,0.9080,0.4608,0.5420,0.5713,0.5708,0.2892,-9.3496,2.5806,-0.0373,-0.0240,-0.0033
P1N,N,1251643,0.9098,0.4616,0.5425,0.5818,0.5832,0.3060,-9.3256,2.6088,-0.0173,-0.0437,-0.0097
P1N,N,1251663,0.9024,0.4578,0.5366,0.5744,0.5633,0.1790,-9.3537,2.6249,0.0143,-0.0505,-0.0111
P1N,N,1251683,0.9083,0.4590,0.5425,0.5756,0.6036,0.2868,-9.3933,2.6675,0.0221,-0.0288,-0.0140
P1N,N,1251703,0.9080,0.4599,0.5420,0.5853,0.5370,0.2275,-9.4022,2.6046,0.0201,-0.0683,-0.0073
P1N,N,1251723,0.9091,0.4608,0.5375,0.5693,0.5927,0.1006,-9.3711,2.5824,0.0092,-0.0441,-0.0131
P1N,N,1251743,0.9098,0.4608,0.5384,0.5767,0.5907,0.1856,-9.3831,2.5483,0.0309,-0.0096,-0.0183
P1N,N,1251763,0.9091,0.4603,0.5425,0.5643,0.5743,0.2030,-9.3831,2.4836,0.0397,-0.0366,-0.0137
P1N,N,1251783,0.9087,0.4590,0.5398,0.5834,0.5917,0.0659,-9.3843,2.4190,0.0437,-0.0506,-0.0033
P1N,N,1251803,0.9080,0.4565,0.5470,0.6009,0.5549,0.1048,-9.3837,2.4615,0.0422,-0.0228,0.0005
P1N,N,1251823,0.9069,0.4586,0.5402,0.6051,0.6533,0.2227,-9.4148,2.5226,0.0309,-0.0452,0.0025
P1N,N,1251843,0.9076,0.4595,0.5402,0.5880,0.6593,0.0299,-9.4579,2.5998,0.0151,-0.0749,-0.0116
P1N,N,1251863,0.9117,0.4560,0.5411,0.5892,0.5912,0.1215,-9.4292,2.5351,-0.0025,-0.0400,0.0045
P1N,N,1251883,0.9091,0.4599,0.5239,0.5686,0.5922,0.2958,-9.3585,2.5519,-0.0005,-0.0189,0.0124
P1N,N,1251903,0.9083,0.4552,0.5542,0.5787,0.5762,0.3137,-9.3933,2.5597,0.0037,-0.0425,0.0109
P1N,N,1251923,0.9091,0.4578,0.5384,0.6016,0.6001,0.2629,-9.3909,2.5226,0.0044,-0.0302,0.0035
P1N,N,1251943,0.9057,0.4547,0.5443,0.5942,0.6787,0.3784,-9.3484,2.5746,0.0241,-0.0314,-0.0108
P1N,N,1251963,0.9080,0.4599,0.5384,0.5744,0.6275,0.2994,-9.3885,2.5381,0.0440,-0.0694,-0.0109
P1N,N,1251983,0.9094,0.4578,0.5321,0.5946,0.6344,0.1150,-9.4693,2.5082,0.0195,-0.0417,-0.0139
P1N,N,1252003,0.9109,0.4573,0.5425,0.5826,0.5802,0.1700,-9.3981,2.5022,-0.0089,0.0207,-0.0261
P1N,N,1252023,0.9076,0.4629,0.5398,0.5907,0.6613,0.2359,-9.3861,2.4932,-0.0059,0.0099,-0.0261
P1N,N,1252043,0.9076,0.4599,0.5583,0.5795,0.5186,0.1718,-9.4142,2.4615,-0.0081,-0.0137,-0.0221
P1N,N,1252063,0.9076,0.4547,0.5361,0.5826,0.6528,0.0778,-9.3873,2.4974,-0.0218,-0.0450,-0.0092
P1N,N,1252083,0.9102,0.4595,0.5488,0.5888,0.6041,0.0305,-9.4202,2.4950,-0.0364,-0.0441,-0.0039
P1N,N,1252103,0.9098,0.4608,0.5402,0.5880,0.6498,0.1186,-9.4208,2.5321,-0.0352,-0.0290,0.0057
P1N,N,1252123,0.9076,0.4599,0.5407,0.5861,0.6379,0.2491,-9.3352,2.5513,-0.0077,-0.0324,0.0063
P1N,N,1252143,0.9069,0.4560,0.5475,0.5888,0.6349,0.2581,-9.4549,2.5758,0.0065,-0.0488,0.0084
P1N,N,1252163,0.9098,0.4608,0.5434,0.5853,0.5837,0.2413,-9.3915,2.5956,-0.0127,-0.0400,0.0077
P1N,N,1252183,0.9105,0.4565,0.5334,0.6071,0.6881,0.3796,-9.3621,2.6231,-0.0261,-0.0254,0.0048
P1N,N,1252203,0.9080,0.4612,0.5352,0.6090,0.6016,0.3808,-9.2999,2.6603,-0.0061,-0.0341,-0.0035
P1N,N,1252223,0.9076,0.4556,0.5429,0.5884,0.6588,0.2976,-9.3663,2.6381,0.0233,-0.0360,-0.0135
P1N,N,1252243,0.9069,0.4633,0.5497,0.5872,0.6439,0.2742,-9.3496,2.6315,0.0167,-0.0132,-0.0285
P1N,N,1252263,0.9080,0.4565,0.5434,0.5954,0.6618,0.2191,-9.3807,2.5681,0.0207,-0.0145,-0.0344
P1N,N,1252283,0.9069,0.4573,0.5389,0.5950,0.5753,0.2688,-9.3627,2.5974,0.0019,-0.0310,-0.0260
P1N,N,1252303,0.9076,0.4539,0.5538,0.5744,0.5976,0.1407,-9.3579,2.5872,0.0131,-0.0802,-0.0151
P1N,N,1252323,0.9094,0.4629,0.5366,0.5756,0.5767,0.0695,-9.4148,2.5238,0.0180,-0.0681,-0.0109
P1N,N,1252343,0.9091,0.4573,0.5416,0.5779,0.6051,0.0982,-9.3981,2.5453,0.0117,-0.0249,-0.0127
P1N,N,1252363,0.9072,0.4608,0.5361,0.5592,0.6474,0.1132,-9.3825,2.5800,0.0229,-0.0264,-0.0152
P1N,N,1252383,0.9065,0.4578,0.5244,0.5406,0.6404,0.1275,-9.3873,2.5770,0.0400,-0.0501,-0.0035
P1N,N,1252403,0.9083,0.4599,0.5407,0.5814,0.6553,0.1677,-9.4549,2.5525,0.0258,-0.0855,-0.0016
P1N,N,1252423,0.9098,0.4595,0.5407,0.5732,0.5857,0.0994,-9.3322,2.5734,0.0101,-0.1192,-0.0019
P1N,N,1252443,0.9083,0.4526,0.5352,0.5853,0.6946,0.0389,-9.3651,2.5746,0.0238,-0.1170,0.0060
P1N,N,1252463,0.9072,0.4526,0.5443,0.5799,0.5927,0.1114,-9.4070,2.5064,0.0290,-0.0870,0.0093
P1N,N,1252483,0.9069,0.4578,0.5398,0.5974,0.5703,0.2611,-9.3891,2.5525,0.0318,-0.0485,0.0100
P1N,N,1252503,0.9087,0.4608,0.5456,0.5631,0.6563,0.3946,-9.4202,2.5226,0.0437,-0.0613,0.0067
P1N,N,1252523,0.9065,0.4603,0.5379,0.5911,0.6682,0.3569,-9.4058,2.4315,0.0360,-0.0861,0.0048
P1N,N,1252543,0.9076,0.4582,0.5212,0.5596,0.6429,0.3497,-9.3813,2.4058,0.0184,-0.0388,-0.0115
P1N,N,1252563,0.9076,0.4560,0.5416,0.5620,0.5723,0.5305,-9.3711,2.3806,0.0163,-0.0276,-0.0330
P1N,N,1252583,0.9080,0.4556,0.5339,0.5865,0.5877,0.3521,-9.4154,2.3968,0.0292,-0.0610,-0.0468
P1N,N,1252603,0.9076,0.4603,0.5411,0.6036,0.5912,0.1371,-9.4687,2.4010,0.0192,-0.0268,-0.0457
P1N,N,1252623,0.9087,0.4573,0.5407,0.5682,0.5827,0.1665,-9.4567,2.4567,-0.0294,-0.0112,-0.0377
P1N,N,1252643,0.9094,0.4586,0.5198,0.5904,0.5544,0.1323,-9.3579,2.4842,-0.0254,-0.0366,-0.0344
P1N,N,1252663,0.9076,0.4603,0.5447,0.5616,0.5877,-0.0162,-9.4262,2.4770,0.0003,-0.0430,-0.0269
P1N,N,1252683,0.9072,0.4565,0.5538,0.5799,0.6026,-0.0485,-9.4322,2.5010,0.0073,-0.0145,-0.0256
P1N,N,1252703,0.9080,0.4595,0.5379,0.5880,0.5907,0.0826,-9.3508,2.5381,-0.0242,-0.0093,-0.0180
P1N,N,1252723,0.9102,0.4586,0.5239,0.5658,0.6086,0.1138,-9.3298,2.5938,-0.0349,-0.0450,-0.0135
P1N,N,1252743,0.9069,0.4578,0.5366,0.5635,0.5653,0.1473,-9.3627,2.6585,-0.0418,-0.0705,-0.0096
P1N,N,1252763,0.9069,0.4590,0.5407,0.5787,0.6091,0.1485,-9.4292,2.6639,-0.0454,-0.0725,-0.0220
P1N,N,1252783,0.9072,0.4586,0.5656,0.5764,0.5310,0.0281,-9.3981,2.7303,-0.0608,-0.0378,-0.0384
P1N,N,1252803,0.9069,0.4595,0.5411,0.6009,0.6792,-0.0359,-9.3166,2.8776,-0.0573,0.0108,-0.0293
P1N,N,1252823,0.9087,0.4599,0.5357,0.5865,0.5678,0.1299,-9.3280,2.8962,-0.0225,0.0035,-0.0105
P1N,N,1252843,0.9069,0.4621,0.5402,0.5861,0.6628,0.0581,-9.2520,2.8225,-0.0336,-0.0437,-0.0052
P1N,N,1252863,0.9072,0.4595,0.5402,0.5814,0.6667,-0.0497,-9.2454,2.8070,-0.0136,-0.0187,-0.0128
P1N,N,1252883,0.9087,0.4608,0.5552,0.6001,0.5474,0.0323,-9.2885,2.7908,-0.0105,0.0340,-0.0187
P1N,N,1252903,0.9113,0.4590,0.5330,0.5830,0.6861,0.1443,-9.2382,2.8004,-0.0249,-0.0025,-0.0161
P1N,N,1252923,0.9083,0.4603,0.5411,0.5616,0.5867,-0.0395,-9.1723,2.7662,0.0141,-0.0488,-0.0159
P1N,N,1252943,0.9094,0.4578,0.5402,0.5977,0.6513,-0.1647,-9.3088,2.6615,0.0397,-0.0128,-0.0220
P1N,N,1252963,0.9076,0.4616,0.5402,0.5799,0.5673,-0.0066,-9.3532,2.6004,0.0466,0.0205,-0.0156
P1N,N,1252983,0.9024,0.4582,0.5176,0.5752,0.5797,-0.0120,-9.4418,2.4818,0.0302,-0.0027,0.0008
P1N,N,1253003,0.9069,0.4629,0.5398,0.5911,0.6379,0.0228,-9.4334,2.3411,-0.0075,0.0111,0.0028
P1N,N,1253023,0.9098,0.4595,0.5447,0.5837,0.5837,0.1060,-9.3687,2.3818,-0.0121,0.0025,-0.0016
P1N,N,1253043,0.9057,0.4595,0.5384,0.5775,0.5693,0.0868,-9.4849,2.3675,0.0083,-0.0289,0.0116
P1N,N,1253063,0.9065,0.4595,0.5298,0.5756,0.5569,-0.0042,-9.4585,2.3333,-0.0165,-0.0260,0.0199
P1N,N,1253083,0.9076,0.4612,0.5443,0.5814,0.5464,0.0180,-9.5064,2.3040,-0.0481,-0.0060,0.0370
P1N,N,1253103,0.9087,0.4552,0.5438,0.5954,0.6439,0.1766,-9.4418,2.3836,-0.0504,-0.0377,0.0537
P1N,N,1253123,0.9094,0.4608,0.5379,0.5915,0.6334,0.1377,-9.5136,2.4968,-0.0342,-0.0378,0.0711
P1N,N,1253143,0.9069,0.4603,0.5398,0.5837,0.6886,0.2976,-9.3933,2.6255,-0.0545,-0.0053,0.0617
P1N,N,1253163,0.9076,0.4608,0.5429,0.5888,0.6011,0.4215,-9.3801,2.7573,-0.0484,-0.0057,0.0634
P1N,N,1253183,0.9065,0.4556,0.5357,0.5748,0.5951,0.5257,-9.2675,2.8746,-0.0476,-0.0139,0.0516
P1N,N,1253203,0.9065,0.4621,0.5407,0.5826,0.6861,0.5814,-9.2280,2.9866,-0.0318,-0.0413,0.0349
P1N,N,1253223,0.9076,0.4616,0.5547,0.5974,0.6842,0.5185,-9.2867,3.0333,-0.0039,-0.0674,0.0147
P1N,N,1253243,0.9131,0.4595,0.5384,0.5830,0.6653,0.4437,-9.2496,3.0776,-0.0207,-0.0574,0.0071
P1N,N,1253263,0.9072,0.4590,0.5384,0.6024,0.6449,0.5107,-9.1645,3.1225,0.0454,-0.0558,0.0075
P1N,N,1253283,0.9094,0.4612,0.5370,0.5876,0.6593,0.4568,-9.4687,2.9531,0.0088,-0.0666,0.0103
P1N,N,1253303,0.9091,0.4586,0.5416,0.5950,0.6603,0.4377,-9.1550,2.9489,0.0233,-0.0469,0.0028
P1N,N,1253323,0.9069,0.4535,0.5411,0.5802,0.5509,0.5036,-9.3705,2.7938,0.0763,-0.0236,-0.0120
P1N,N,1253343,0.9043,0.4560,0.5352,0.5822,0.6677,0.4646,-9.2184,2.6950,0.0906,-0.0518,-0.0212
P1N,N,1253363,0.9094,0.4578,0.5239,0.5888,0.6737,0.3479,-9.4394,2.5471,0.0899,-0.0537,-0.0276
P1N,N,1253383,0.9069,0.4608,0.5479,0.5756,0.6682,0.2479,-9.3543,2.5423,0.0755,-0.0294,-0.0449
P1N,N,1253403,0.9072,0.4595,0.5452,0.5872,0.6633,0.2413,-9.3340,2.4836,0.0569,-0.0546,-0.0402
P1N,N,1253423,0.9083,0.4573,0.5456,0.5896,0.5902,0.0120,-9.4190,2.5088,0.0741,-0.0718,-0.0400
P1N,N,1253443,0.9087,0.4595,0.5447,0.5981,0.5638,-0.0808,-9.4022,2.4429,0.0179,-0.0113,-0.0454
P1N,N,1253463,0.9065,0.4569,0.5384,0.5639,0.6319,0.1581,-9.3753,2.4992,0.0149,-0.0127,-0.0313
P1N,N,1253483,0.9057,0.4599,0.5316,0.6090,0.6523,0.0323,-9.4202,2.5483,-0.0073,-0.0593,-0.0145
P1N,N,1253503,0.9069,0.4612,0.5366,0.5693,0.5917,0.0024,-9.3388,2.5687,-0.0192,-0.0321,-0.0152
P1N,N,1253523,0.9069,0.4603,0.5402,0.5985,0.6583,0.1461,-9.3406,2.6561,0.0024,-0.0187,-0.0113
P1N,N,1253543,0.9080,0.4586,0.5398,0.5697,0.5991,0.1694,-9.3484,2.6591,0.0207,-0.0604,0.0045
P1N,N,1253563,0.9076,0.4556,0.5402,0.6067,0.6076,0.1269,-9.4124,2.6279,-0.0032,-0.0468,0.0065
P1N,N,1253583,0.9094,0.4603,0.5533,0.5744,0.5941,0.2359,-9.2915,2.7010,-0.0119,-0.0125,-0.0040
P1N,N,1253603,0.9072,0.4668,0.5420,0.5818,0.6623,0.2988,-9.3214,2.7477,0.0041,-0.0373,-0.0076
P1N,N,1253623,0.9091,0.4603,0.5280,0.5717,0.5882,0.1778,-9.3184,2.7291,0.0016,-0.0562,-0.0061
P1N,N,1253643,0.9072,0.4625,0.5434,0.5693,0.6111,0.1497,-9.4130,2.7279,0.0111,-0.0313,-0.0035
P1N,N,1253663,0.9113,0.4612,0.5284,0.5799,0.6304,0.2221,-9.3442,2.6944,0.0153,-0.0341,-0.0031
P1N,N,1253683,0.9076,0.4586,0.5361,0.5958,0.6011,0.2281,-9.3520,2.6561,0.0225,-0.0513,0.0000
P1N,N,1253703,0.9076,0.4608,0.5411,0.5740,0.6006,0.2293,-9.3879,2.6022,0.0300,-0.0546,0.0039
P1N,N,1253723,0.9072,0.4612,0.5529,0.5911,0.6314,0.2587,-9.3855,2.5471,0.0325,-0.0544,0.0017
P1N,N,1253743,0.9076,0.4659,0.5420,0.5690,0.5922,0.2718,-9.3597,2.5244,0.0317,-0.0517,0.0040
P1N,N,1253763,0.9117,0.4689,0.5280,0.5865,0.6076,0.2850,-9.3987,2.5279,0.0301,-0.0388,-0.0052
P1N,N,1253783,0.9094,0.4629,0.5456,0.5818,0.6702,0.2922,-9.4346,2.4956,0.0167,-0.0155,-0.0164
P1N,N,1253803,0.9061,0.4612,0.5443,0.5814,0.6752,0.3203,-9.4531,2.4208,-0.0241,-0.0141,-0.0284
P1N,N,1253823,0.9076,0.4582,0.5239,0.5682,0.5673,0.3227,-9.3256,2.5573,-0.0272,-0.0268,-0.0290
P1N,N,1253843,0.9072,0.4599,0.5402,0.6051,0.6329,0.1922,-9.4466,2.6255,-0.0077,-0.0537,-0.0244
P1N,N,1253863,0.9061,0.4595,0.5045,0.5686,0.5872,0.1323,-9.2813,2.6998,-0.0520,-0.0329,-0.0266
P1N,N,1253883,0.9065,0.4599,0.5416,0.5725,0.5966,0.1826,-9.3238,2.7471,-0.0234,-0.0172,-0.0292
P1N,N,1253903,0.9076,0.4586,0.5538,0.5686,0.6051,0.1425,-9.3340,2.7758,-0.0188,-0.0324,-0.0322
P1N,N,1253923,0.9072,0.4595,0.5452,0.5717,0.6717,0.0856,-9.3406,2.7453,-0.0161,-0.0296,-0.0277
P1N,N,1253943,0.9113,0.4638,0.5416,0.5620,0.5922,0.1006,-9.3388,2.7872,-0.0024,-0.0374,-0.0205
P1N,N,1253963,0.9061,0.4621,0.5552,0.6051,0.5772,0.0695,-9.3023,2.7585,0.0071,-0.0384,-0.0171
P1N,N,1253983,0.9065,0.4625,0.5393,0.5635,0.5927,0.0802,-9.3268,2.7968,0.0258,-0.0274,-0.0107
P1N,N,1254003,0.9072,0.4573,0.5334,0.5872,0.6976,0.1150,-9.3280,2.7680,0.0230,-0.0342,-0.0068
P1N,N,1254023,0.9065,0.4651,0.5357,0.5697,0.5723,0.1000,-9.3765,2.6818,0.0063,-0.0430,-0.0012
P1N,N,1254043,0.9098,0.4625,0.5271,0.5814,0.6767,0.1659,-9.3274,2.6764,0.0040,-0.0274,-0.0076
P1N,N,1254063,0.9102,0.4603,0.5266,0.5837,0.5877,0.2150,-9.3555,2.6208,0.0220,-0.0370,-0.0087
P1N,N,1254083,0.9065,0.4616,0.5466,0.5491,0.6697,0.1509,-9.3855,2.5830,0.0201,-0.0430,-0.0139
P1N,N,1254103,0.9076,0.4629,0.5402,0.5900,0.5683,0.1683,-9.3244,2.6399,-0.0100,-0.0168,-0.0125
P1N,N,1254123,0.9080,0.4599,0.5389,0.5849,0.5927,0.2359,-9.3669,2.6752,0.0033,-0.0268,-0.0093
P1N,N,1254143,0.9046,0.4621,0.5556,0.5939,0.6324,0.1898,-9.3124,2.6669,0.0087,-0.0406,-0.0063
P1N,N,1254163,0.9065,0.4612,0.5456,0.5725,0.6424,0.1623,-9.4100,2.6968,0.0248,-0.0310,-0.0117
P1N,N,1254183,0.9080,0.4608,0.5398,0.5752,0.5390,0.1587,-9.3232,2.7100,0.0039,-0.0139,-0.0183
P1N,N,1254203,0.9094,0.4608,0.5384,0.5592,0.6334,0.1569,-9.3573,2.7447,0.0112,-0.0280,-0.0153
P1N,N,1254223,0.9069,0.4603,0.5425,0.5845,0.6409,0.1245,-9.3286,2.7285,0.0105,-0.0441,-0.0095
P1N,N,1254243,0.9061,0.4625,0.5443,0.5577,0.5802,0.0904,-9.3340,2.7357,0.0226,-0.0601,-0.0003
P1N,N,1254263,0.9094,0.4616,0.5389,0.5744,0.5792,0.1192,-9.3951,2.6836,0.0222,-0.0590,-0.0013
P1N,N,1254283,0.9076,0.4621,0.5090,0.5896,0.6543,0.0898,-9.3244,2.6800,-0.0139,-0.0545,0.0016
P1N,N,1254303,0.9076,0.4616,0.5583,0.5810,0.6031,0.1623,-9.2903,2.7088,-0.0008,-0.0254,-0.0025
P1N,N,1254323,0.9069,0.4625,0.5461,0.5674,0.5812,0.2461,-9.3831,2.6633,0.0245,-0.0454,-0.0040
P1N,N,1254343,0.9083,0.4608,0.5153,0.5841,0.6479,0.1102,-9.3597,2.6213,0.0211,-0.0509,-0.0117
P1N,N,1254363,0.9057,0.4629,0.5298,0.5760,0.5762,0.1371,-9.3681,2.6255,0.0256,-0.0216,-0.0108
P1N,N,1254383,0.9105,0.4621,0.5438,0.6187,0.6379,0.1976,-9.3747,2.5764,0.0276,-0.0542,0.0011
P1N,N,1254403,0.9069,0.4569,0.5389,0.5958,0.5872,0.1048,-9.4286,2.5303,0.0103,-0.0596,0.0049
P1N,N,1254423,0.9094,0.4621,0.5384,0.5841,0.6404,0.1587,-9.3717,2.5872,-0.0097,-0.0226,-0.0032
P1N,N,1254443,0.9094,0.4625,0.5542,0.5635,0.5439,0.2311,-9.3226,2.6279,0.0065,-0.0302,-0.0136
P1N,N,1254463,0.9072,0.4616,0.5312,0.5826,0.5946,0.1563,-9.3777,2.6124,0.0071,-0.0564,-0.0097
P1N,N,1254483,0.9091,0.4573,0.5361,0.6086,0.5842,0.1527,-9.3735,2.6669,-0.0112,-0.0421,-0.0085
P1N,N,1254503,0.9061,0.4612,0.5416,0.5861,0.6837,0.2024,-9.3466,2.7321,-0.0113,-0.0308,-0.0109
P1N,N,1254523,0.9105,0.4612,0.5343,0.5830,0.6518,0.1946,-9.3364,2.6932,-0.0043,-0.0346,-0.0163
P1N,N,1254543,0.9069,0.4612,0.5552,0.5892,0.6434,0.2173,-9.3549,2.6633,0.0009,-0.0404,-0.0153
P1N,N,1254563,0.9083,0.4608,0.5407,0.5756,0.5723,0.1569,-9.3406,2.6722,0.0053,-0.0485,-0.0156
P1N,N,1254583,0.9102,0.4569,0.5411,0.5861,0.5991,0.1162,-9.3693,2.7040,0.0024,-0.0445,-0.0120
P1N,N,1254603,0.9083,0.4509,0.5438,0.5869,0.6593,0.0790,-9.3567,2.7339,-0.0005,-0.0360,-0.0151
P1N,N,1254623,0.9083,0.4578,0.5402,0.6024,0.6066,0.1778,-9.3166,2.7022,0.0019,-0.0370,-0.0072
P1N,N,1254643,0.9080,0.4621,0.5312,0.5783,0.5842,0.1383,-9.3400,2.7291,-0.0099,-0.0361,-0.0121
P1N,N,1254663,0.9076,0.4603,0.5298,0.5717,0.5882,0.1251,-9.3514,2.7243,0.0127,-0.0341,-0.0088
P1N,N,1254683,0.9094,0.4621,0.5407,0.5892,0.5892,0.1934,-9.2454,2.7519,-0.0063,-0.0326,-0.0127
P1N,N,1254703,0.9098,0.4642,0.5407,0.5970,0.6722,0.2173,-9.3723,2.7148,0.0215,-0.0518,-0.0084
P1N,N,1254723,0.9139,0.4526,0.5420,0.5806,0.5444,0.0892,-9.2873,2.7477,0.0181,-0.0521,-0.0165
P1N,N,1254743,0.9102,0.4616,0.5407,0.5927,0.6911,0.1126,-9.4112,2.7315,0.0179,-0.0191,-0.0175
P1N,N,1254763,0.9083,0.4616,0.5452,0.5826,0.6618,0.1748,-9.3005,2.7022,0.0107,-0.0340,-0.0101
P1N,N,1254783,0.9102,0.4621,0.5533,0.5725,0.5827,0.0581,-9.4142,2.7016,0.0300,-0.0593,-0.0037
P1N,N,1254803,0.9083,0.4603,0.5389,0.5977,0.6434,0.0539,-9.3436,2.6315,-0.0039,-0.0390,-0.0008
P1N,N,1254823,0.9105,0.4625,0.5438,0.5818,0.6633,0.1269,-9.3496,2.6675,0.0208,-0.0298,-0.0037
P1N,N,1254843,0.9061,0.4629,0.5357,0.5686,0.5971,0.1557,-9.3136,2.6645,-0.0011,-0.0260,-0.0097
P1N,N,1254863,0.9076,0.4603,0.5398,0.5662,0.5991,0.1497,-9.3364,2.7261,0.0109,-0.0393,-0.0063
P1N,N,1254883,0.9102,0.4616,0.5379,0.5876,0.6125,0.1198,-9.3190,2.7255,0.0060,-0.0446,-0.0089
P1N,N,1254903,0.9083,0.4616,0.5416,0.5736,0.6245,0.1096,-9.3514,2.6495,0.0185,-0.0341,-0.0149
P1N,N,1254923,0.9069,0.4612,0.5370,0.5911,0.6772,0.0647,-9.4735,2.6196,0.0230,-0.0372,-0.0103
