person_id,label,timestamp,flex1,flex2,flex3,flex4,flex5,ax,ay,az,gx,gy,gz
P1P,P,1560163,0.9894,0.9899,1.0000,0.9993,1.0000,-1.2053,-9.6352,-1.2586,0.0091,-0.0465,-0.0084
P1P,P,1560183,0.9901,0.9913,0.9991,0.9960,1.0000,-1.3077,-9.6597,-1.2993,0.0320,-0.0378,-0.0011
P1P,P,1560203,0.9905,0.9913,0.9888,0.9879,1.0000,-1.1083,-9.7411,-1.4137,0.0145,-0.0292,0.0017
P1P,P,1560223,0.9901,0.9950,0.9851,1.0000,1.0000,-1.3424,-9.7352,-1.4999,-0.0297,-0.0468,0.0065
P1P,P,1560243,0.9912,0.9908,0.9832,0.9847,0.9582,-1.3101,-9.7543,-1.5939,-0.0893,-0.0128,0.0522
P1P,P,1560263,0.9897,0.9880,0.9916,0.9997,1.0000,-1.2634,-9.2885,-1.3741,-0.1318,-0.0029,0.0750
P1P,P,1560283,0.9919,0.9941,0.9879,1.0000,0.9526,-0.9634,-9.4340,-1.1957,-0.0497,-0.0048,0.0360
P1P,P,1560303,0.9934,0.9917,0.9874,1.0000,0.9906,-0.9969,-9.6783,-1.1299,-0.0101,-0.0357,-0.0112
P1P,P,1560323,0.9916,0.9917,0.9874,1.0000,0.9240,-1.0933,-9.8040,-1.0748,0.0021,-0.0366,-0.0265
P1P,P,1560343,0.9923,0.9867,0.9963,1.0000,1.0000,-1.2023,-9.8825,-1.0574,-0.0041,-0.0318,-0.0221
P1P,P,1560363,0.9905,0.9871,0.9800,0.9977,1.0000,-1.1939,-9.6549,-1.0083,-0.0069,0.0029,-0.0112
P1P,P,1560383,0.9897,0.9843,0.9874,0.9831,1.0000,-1.2388,-9.6801,-0.9897,0.0409,0.0068,-0.0047
P1P,P,1560403,0.9916,0.9904,0.9930,1.0000,0.9621,-1.1831,-9.7298,-1.1173,0.0512,-0.0143,-0.0133
P1P,P,1560423,0.9927,0.9885,0.9870,0.9952,0.9569,-1.3903,-9.7855,-1.2532,0.0412,-0.0328,-0.0156
P1P,P,1560443,0.9905,0.9871,0.9758,0.9985,1.0000,-1.2825,-9.7124,-1.3526,-0.0032,0.0005,0.0079
P1P,P,1560463,0.9905,0.9839,0.9874,0.9826,1.0000,-1.1382,-9.5214,-1.2867,-0.0161,-0.0278,0.0209
P1P,P,1560483,0.9886,0.9834,0.9897,1.0000,0.9426,-1.2035,-9.6423,-1.2861,0.0128,-0.0265,0.0149
P1P,P,1560503,0.9927,0.9862,0.9860,0.9847,1.0000,-0.9544,-9.6855,-1.1472,0.0128,0.0008,0.0149
P1P,P,1560523,0.9901,0.9848,0.9828,0.9969,1.0000,-0.9945,-9.7783,-1.2107,0.0140,-0.0241,-0.0079
P1P,P,1560543,0.9890,0.9862,1.0000,0.9851,0.9720,-1.0790,-9.7663,-1.1861,-0.0068,-0.0215,-0.0201
P1P,P,1560563,0.9894,0.9862,0.9865,0.9981,1.0000,-1.1933,-9.6807,-1.1287,-0.0147,-0.0124,-0.0238
P1P,P,1560583,0.9905,0.9867,0.9907,0.9964,0.9988,-1.2340,-9.6394,-1.0837,0.0140,0.0072,-0.0135
P1P,P,1560603,0.9886,0.9871,0.9879,0.9875,0.9379,-1.2981,-9.7082,-1.1526,0.0285,0.0007,0.0024
P1P,P,1560623,0.9897,0.9843,0.9865,0.9867,0.9422,-1.3807,-9.7471,-1.1981,0.0240,0.0313,0.0281
P1P,P,1560643,0.9905,0.9830,0.9883,0.9656,1.0000,-1.2239,-9.7639,-1.2382,-0.0055,0.0385,0.0434
P1P,P,1560663,0.9916,0.9862,0.9809,0.9851,1.0000,-1.2257,-9.7597,-1.2652,-0.0634,-0.0261,0.0390
P1P,P,1560683,0.9879,0.9857,0.9637,0.9713,0.9370,-1.1754,-9.5088,-1.1430,-0.0486,-0.0545,0.0180
P1P,P,1560703,0.9905,0.9862,0.9818,1.0000,0.9677,-1.2747,-9.6992,-1.1484,-0.0183,-0.0485,0.0372
P1P,P,1560723,0.9879,0.9848,0.9842,0.9973,1.0000,-1.0604,-9.5705,-1.0029,0.0261,-0.0136,0.0470
P1P,P,1560743,0.9857,0.9825,0.9842,0.9932,0.9526,-0.9077,-9.7908,-1.0568,0.0787,-0.0273,0.0344
P1P,P,1560763,0.9894,0.9834,0.9874,0.9753,0.9733,-0.9011,-9.8328,-1.1783,0.0568,-0.0644,0.0115
P1P,P,1560783,0.9890,0.9830,0.9623,0.9839,1.0000,-1.0233,-9.6639,-1.1969,0.0408,-0.0667,-0.0105
P1P,P,1560803,0.9871,0.9830,0.9725,1.0000,1.0000,-1.1281,-9.6346,-1.2304,0.0691,-0.0225,-0.0063
P1P,P,1560823,0.9864,0.9834,0.9814,0.9713,0.9543,-1.0670,-9.6585,-1.2298,0.0735,0.0039,-0.0003
P1P,P,1560843,0.9868,0.9839,0.9902,0.9778,0.9578,-1.0652,-9.7860,-1.2598,0.0791,-0.0172,-0.0173
P1P,P,1560863,0.9879,0.9839,0.9981,0.9790,0.9707,-1.1909,-9.6950,-1.2598,0.0481,-0.0099,-0.0352
P1P,P,1583963,0.8149,0.5071,0.0000,0.0000,0.7645,2.0980,-5.0691,7.8922,-0.0193,-0.0301,-0.0067
P1P,P,1583983,0.8138,0.5057,0.0000,0.0000,0.6970,2.1052,-5.0613,7.8826,0.0103,-0.0072,-0.0163
P1P,P,1584003,0.8145,0.5071,0.0000,0.0000,0.7009,2.2040,-5.0355,7.9185,0.0059,0.0031,-0.0316
P1P,P,1584023,0.8167,0.5066,0.0000,0.0000,0.6642,2.1837,-4.9780,8.0281,-0.0132,-0.0108,-0.0302
P1P,P,1584043,0.8175,0.5071,0.0000,0.0000,0.7230,2.0693,-4.9888,8.0610,0.0016,-0.0093,-0.0316
P1P,P,1584063,0.8130,0.5089,0.0000,0.0000,0.7079,2.0926,-5.0212,8.0598,0.0059,0.0011,-0.0402
P1P,P,1584083,0.8138,0.5094,0.0000,0.0000,0.7070,2.1483,-5.0403,8.0227,0.0089,-0.0072,-0.0342
P1P,P,1584103,0.8160,0.5048,0.0000,0.0000,0.6378,2.1813,-5.0984,7.9664,0.0068,-0.0361,-0.0176
P1P,P,1584123,0.8156,0.5048,0.0000,0.0000,0.6209,2.1028,-5.0709,7.9335,-0.0393,-0.0806,-0.0037
P1P,P,1584143,0.8171,0.5038,0.0000,0.0000,0.6875,2.0591,-5.0092,7.9952,-0.0521,-0.0644,-0.0080
P1P,P,1584163,0.8156,0.5034,0.0000,0.0000,0.6612,2.1352,-4.9248,8.0545,-0.0197,-0.0533,-0.0175
P1P,P,1584183,0.8164,0.5052,0.0000,0.0000,0.7299,2.0795,-4.8990,8.0107,0.0015,-0.0823,-0.0141
P1P,P,1584203,0.8156,0.5048,0.0000,0.0000,0.6659,1.9885,-4.8882,8.0275,0.0108,-0.0822,-0.0137
P1P,P,1584223,0.8167,0.5052,0.0000,0.0000,0.7200,2.0064,-4.8805,8.0245,0.0265,-0.0558,-0.0233
P1P,P,1584243,0.8134,0.5048,0.0000,0.0000,0.6607,2.0070,-4.9774,7.8682,0.0646,-0.0486,-0.0332
P1P,P,1584263,0.8138,0.5048,0.0000,0.0000,0.6136,1.8873,-5.0451,7.7485,0.0385,-0.0498,-0.0284
P1P,P,1584283,0.8178,0.5066,0.0000,0.0000,0.7005,1.8987,-5.0637,7.7850,0.0207,-0.0286,-0.0289
P1P,P,1584303,0.8145,0.4964,0.0000,0.0000,0.6361,1.9166,-5.0529,7.8317,0.0111,-0.0360,-0.0141
P1P,P,1584323,0.8123,0.5117,0.0000,0.0000,0.6534,1.8759,-5.0816,7.8317,-0.0187,-0.0402,0.0091
P1P,P,1584343,0.8134,0.5034,0.0000,0.0000,0.7061,1.9448,-5.0289,7.9700,-0.0397,-0.0482,0.0201
P1P,P,1584363,0.8145,0.4955,0.0000,0.0000,0.7342,2.0723,-4.9056,8.0880,-0.0179,-0.0396,0.0151
P1P,P,1584383,0.8153,0.5066,0.0000,0.0000,0.7156,2.0555,-4.8613,8.0748,0.0141,-0.0416,-0.0105
P1P,P,1584403,0.8130,0.5052,0.0000,0.0000,0.6949,2.0453,-4.9367,7.9832,0.0317,-0.0052,-0.0352
P1P,P,1584423,0.8156,0.5034,0.0000,0.0000,0.6884,2.1040,-4.9517,7.9473,0.0180,0.0108,-0.0597
P1P,P,1584443,0.8175,0.5038,0.0000,0.0000,0.6711,2.0597,-5.0092,7.9179,-0.0028,-0.0124,-0.0456
P1P,P,1584463,0.8156,0.5117,0.0000,0.0000,0.6560,1.9759,-5.0583,7.9263,-0.0191,-0.0505,-0.0274
P1P,P,1584483,0.8138,0.5099,0.0000,0.0000,0.6313,1.8975,-5.0206,8.0083,-0.0213,-0.0405,-0.0211
P1P,P,1584503,0.8160,0.5043,0.0000,0.0000,0.6270,1.9693,-4.9577,8.0850,-0.0088,-0.0389,-0.0216
P1P,P,1584523,0.8153,0.5057,0.0000,0.0000,0.7027,1.9250,-4.9810,8.0371,-0.0144,-0.0485,-0.0055
P1P,P,1584543,0.8145,0.5011,0.0000,0.0000,0.6490,1.9555,-4.9278,8.1071,-0.0188,-0.0496,-0.0068
P1P,P,1584563,0.8138,0.5034,0.0000,0.0000,0.6936,2.0088,-4.9032,8.0700,0.0109,-0.0384,-0.0124
P1P,P,1584583,0.8141,0.5057,0.0000,0.0000,0.7342,2.0561,-4.9122,8.0982,0.0321,-0.0388,-0.0140
P1P,P,1584603,0.8101,0.5038,0.0000,0.0000,0.6919,2.0465,-4.9385,8.0024,0.0405,-0.0446,-0.0152
P1P,P,1584623,0.8153,0.5048,0.0000,0.0000,0.6452,1.9513,-4.9733,7.8682,0.0144,-0.0474,-0.0248
P1P,P,1584643,0.8134,0.5034,0.0000,0.0000,0.6460,2.0046,-4.9721,7.8922,0.0004,-0.0408,-0.0281
P1P,P,1584663,0.8138,0.5048,0.0000,0.0000,0.7533,1.9777,-4.9900,7.9131,0.0049,-0.0413,-0.0274
P1P,P,1584683,0.8149,0.5038,0.0000,0.0000,0.6499,1.9651,-4.9780,7.9371,0.0067,-0.0324,-0.0225
P1P,P,1584703,0.8145,0.5075,0.0000,0.0000,0.6932,1.9819,-4.9361,7.9994,-0.0121,-0.0436,-0.0100
P1P,P,1584723,0.8164,0.5048,0.0000,0.0000,0.7053,1.9286,-4.9409,8.1018,-0.0133,-0.0574,0.0079
P1P,P,1584743,0.8156,0.5043,0.0000,0.0000,0.6983,1.9364,-4.9535,8.1047,0.0167,-0.0596,0.0128
P1P,P,1584763,0.8138,0.5011,0.0000,0.0000,0.6594,1.9735,-4.9870,8.0958,0.0310,-0.0632,0.0085
P1P,P,1584783,0.8134,0.4992,0.0000,0.0000,0.7161,1.9795,-5.0894,7.9718,0.0308,-0.0494,0.0028
P1P,P,1584803,0.8160,0.4997,0.0000,0.0000,0.6478,2.0759,-5.1463,7.8832,0.0108,-0.0305,-0.0061
P1P,P,1584823,0.8108,0.5015,0.0000,0.0000,0.6058,2.1148,-5.1212,7.8311,-0.0205,-0.0388,-0.0108
P1P,P,1584843,0.8119,0.5043,0.0000,0.0000,0.6650,2.0190,-5.0451,7.9802,-0.0205,-0.0432,-0.0325
P1P,P,1584863,0.8127,0.5025,0.0000,0.0000,0.6737,1.9968,-4.9828,7.9850,-0.0209,-0.0328,-0.0349
P1P,P,1584883,0.8138,0.5043,0.0000,0.0000,0.6279,1.9621,-4.8715,8.1293,-0.0173,-0.0470,-0.0266
P1P,P,1584903,0.8178,0.5057,0.0000,0.0000,0.6854,1.9196,-4.8978,8.1006,0.0037,-0.0480,-0.0083
P1P,P,1584923,0.8123,0.5043,0.0000,0.0000,0.6296,1.9280,-4.9128,8.0431,0.0093,-0.0492,-0.0096
P1P,P,1584943,0.8149,0.5034,0.0000,0.0000,0.7485,1.9974,-4.9553,8.0443,0.0181,-0.0402,-0.0107
P1P,P,1584963,0.8127,0.5029,0.0000,0.0000,0.6594,1.9783,-4.9194,7.9844,0.0344,-0.0477,-0.0159
P1P,P,1584983,0.8138,0.5038,0.0000,0.0000,0.7027,1.9472,-5.0595,7.8545,0.0288,-0.0400,-0.0149
P1P,P,1585003,0.8119,0.5020,0.0000,0.0000,0.6746,1.9939,-5.0068,7.9209,-0.0048,-0.0580,-0.0169
P1P,P,1585023,0.8123,0.4974,0.0000,0.0000,0.7269,1.9394,-4.9679,7.9838,0.0317,-0.0406,-0.0244
P1P,P,1585043,0.8127,0.5020,0.0000,0.0000,0.7035,1.9082,-5.0756,7.8742,0.0013,-0.0354,-0.0077
P1P,P,1585063,0.8141,0.5025,0.0000,0.0000,0.6923,1.8998,-4.9942,7.9658,-0.0224,-0.0584,0.0025
P1P,P,1585083,0.8153,0.5043,0.0000,0.0000,0.6940,1.8448,-5.0391,7.9209,0.0080,-0.0308,0.0025
P1P,P,1585103,0.8119,0.5029,0.0000,0.0000,0.7117,1.9382,-4.9487,7.9784,-0.0173,-0.0368,0.0061
P1P,P,1585123,0.8119,0.5006,0.0000,0.0000,0.6244,1.9897,-4.8505,8.0718,0.0028,-0.0593,0.0116
P1P,P,1585143,0.8112,0.5066,0.0000,0.0000,0.7070,1.8993,-4.8900,8.0694,0.0404,-0.0525,0.0063
P1P,P,1585163,0.8130,0.5034,0.0000,0.0000,0.7061,1.9022,-4.9697,7.9233,0.0402,-0.0269,-0.0127
P1P,P,1585183,0.8145,0.5038,0.0000,0.0000,0.6819,1.9759,-5.0403,7.9329,0.0096,-0.0143,-0.0250
P1P,P,1585203,0.8127,0.5011,0.0000,0.0000,0.6326,1.9867,-5.0355,7.9622,-0.0029,-0.0426,-0.0097
P1P,P,1585223,0.8123,0.5015,0.0000,0.0000,0.7022,1.9004,-5.0870,7.9569,0.0040,-0.0448,-0.0101
P1P,P,1585243,0.8167,0.5020,0.0000,0.0000,0.6529,1.8843,-5.0828,7.9066,0.0001,-0.0092,-0.0254
P1P,P,1585263,0.8105,0.5001,0.0000,0.0000,0.7498,1.9789,-4.9583,8.0071,-0.0101,-0.0033,-0.0277
P1P,P,1585283,0.8130,0.5001,0.0000,0.0000,0.6590,1.9124,-4.9343,8.0874,0.0137,-0.0285,-0.0221
P1P,P,1585303,0.8101,0.4997,0.0000,0.0000,0.6443,1.8915,-4.9511,8.0281,0.0426,-0.0258,-0.0164
P1P,P,1585323,0.8141,0.4997,0.0000,0.0000,0.6421,1.8819,-4.9679,8.0203,0.0273,-0.0337,-0.0097
P1P,P,1585343,0.8134,0.4997,0.0000,0.0000,0.7057,1.9340,-4.9942,8.0245,0.0085,-0.0384,-0.0051
P1P,P,1585363,0.8156,0.5006,0.0000,0.0000,0.6871,1.9951,-5.0283,8.0311,0.0205,-0.0405,-0.0020
P1P,P,1585383,0.8079,0.4951,0.0000,0.0000,0.6465,1.9394,-4.9691,7.9652,0.0100,-0.0489,-0.0041
P1P,P,1585403,0.8127,0.5001,0.0000,0.0000,0.6184,1.9274,-4.9798,7.9491,0.0035,-0.0288,-0.0100
P1P,P,1585423,0.8101,0.5001,0.0000,0.0000,0.7282,1.9495,-4.9703,7.9329,0.0117,-0.0125,-0.0258
P1P,P,1585443,0.8167,0.5099,0.0000,0.0000,0.6400,1.9933,-5.0355,7.8706,-0.0044,-0.0149,-0.0269
P1P,P,1585463,0.8112,0.5034,0.0000,0.0000,0.6088,1.9400,-4.9373,7.9491,-0.0177,-0.0413,-0.0084
P1P,P,1585483,0.8116,0.5043,0.0000,0.0000,0.6750,1.9573,-4.9002,8.0688,-0.0139,-0.0409,0.0020
P1P,P,1585503,0.8105,0.5020,0.0000,0.0000,0.7377,1.9980,-4.8326,8.1676,-0.0204,-0.0553,0.0123
P1P,P,1585523,0.8138,0.5006,0.0000,0.0000,0.6940,1.9238,-4.8068,8.1850,0.0072,-0.0401,0.0124
P1P,P,1585543,0.8105,0.5015,0.0000,0.0000,0.7156,2.0244,-4.8176,8.1826,0.0437,-0.0304,0.0051
P1P,P,1585563,0.8130,0.5029,0.0000,0.0000,0.7226,2.0441,-4.9439,8.0461,0.0701,-0.0384,0.0069
P1P,P,1585583,0.8108,0.5011,0.0000,0.0000,0.6305,1.9801,-5.0625,7.9012,0.0693,-0.0456,0.0001
P1P,P,1585603,0.8112,0.5029,0.0000,0.0000,0.7117,1.9531,-5.0990,7.7850,0.0462,-0.0333,-0.0073
P1P,P,1585623,0.8086,0.5006,0.0000,0.0000,0.6927,1.9579,-5.0277,7.8617,0.0035,-0.0352,-0.0041
P1P,P,1585643,0.8101,0.5062,0.0000,0.0000,0.7213,1.9214,-4.9703,8.0263,-0.0065,-0.0541,0.0119
P1P,P,1585663,0.8127,0.5011,0.0000,0.0000,0.6495,1.8496,-4.8811,8.1503,0.0072,-0.0593,0.0269
P1P,P,1585683,0.8112,0.5015,0.0000,0.0000,0.7014,1.8525,-4.9056,8.1532,0.0374,-0.0691,0.0469
P1P,P,1585703,0.8119,0.5025,0.0000,0.0000,0.6447,1.9160,-4.9679,8.0628,0.0785,-0.0537,0.0486
P1P,P,1585723,0.8112,0.5001,0.0000,0.0000,0.7217,2.0489,-5.1158,7.9173,0.0833,-0.0382,0.0417
P1P,P,1585743,0.8123,0.4992,0.0000,0.0000,0.7156,2.0801,-5.1427,7.7676,0.0466,-0.0392,0.0173
P1P,P,1585763,0.8105,0.5011,0.0000,0.0000,0.6534,2.1094,-5.1822,7.7473,0.0084,-0.0211,-0.0095
P1P,P,1585783,0.8097,0.5015,0.0000,0.0000,0.6287,2.1585,-5.1343,7.8030,-0.0104,-0.0193,-0.0370
P1P,P,1585803,0.8101,0.5029,0.0000,0.0000,0.7338,2.0382,-5.0852,7.8748,-0.0341,-0.0222,-0.0444
P1P,P,1585823,0.8086,0.5011,0.0000,0.0000,0.7066,1.8813,-5.0451,7.9826,-0.0472,-0.0354,-0.0360
P1P,P,1585843,0.8116,0.5034,0.0000,0.0000,0.6962,1.8747,-4.9577,8.0688,-0.0374,-0.0266,-0.0320
P1P,P,1585863,0.8119,0.5038,0.0000,0.0000,0.6400,1.8591,-4.9415,8.1497,-0.0280,-0.0318,-0.0072
P1P,P,1585883,0.8101,0.5025,0.0000,0.0000,0.7303,1.8352,-4.9254,8.1922,-0.0028,-0.0346,-0.0109
P1P,P,1585903,0.8127,0.5071,0.0000,0.0000,0.6568,2.0567,-4.8547,8.1772,0.0561,-0.0168,-0.0139
P1P,P,1585923,0.8119,0.5034,0.0000,0.0000,0.6612,2.0573,-5.0212,7.9904,0.0224,-0.0486,0.0088
P1P,P,1585943,0.8105,0.5011,0.0000,0.0000,0.7100,2.0843,-4.9415,7.9383,0.0164,-0.0544,0.0012
P1P,P,1585963,0.8127,0.5001,0.0000,0.0000,0.6607,2.0573,-5.1176,7.8185,0.0277,-0.0249,-0.0213
P1P,P,1585983,0.8119,0.5025,0.0000,0.0000,0.6599,2.0334,-5.0942,7.7820,-0.0250,-0.0370,-0.0281
P1P,P,1586003,0.8101,0.5011,0.0000,0.0000,0.6283,1.9807,-5.0182,7.8844,-0.0203,-0.0390,-0.0354
P1P,P,1586023,0.8105,0.5001,0.0000,0.0000,0.6906,1.8585,-4.9709,7.8904,-0.0168,-0.0324,-0.0421
P1P,P,1586043,0.8119,0.5015,0.0000,0.0000,0.6400,1.8040,-4.8793,8.0556,-0.0489,-0.0333,-0.0116
P1P,P,1586063,0.8097,0.4997,0.0000,0.0000,0.6538,1.8136,-4.8038,8.1940,-0.0389,-0.0469,0.0189
P1P,P,1586083,0.8116,0.5011,0.0000,0.0000,0.6815,1.8466,-4.7847,8.2071,0.0128,-0.0384,0.0302
P1P,P,1586103,0.8108,0.5025,0.0000,0.0000,0.6880,2.0100,-4.8583,8.1311,0.0445,-0.0224,0.0249
P1P,P,1586123,0.8097,0.4983,0.0000,0.0000,0.6594,2.1124,-4.9164,8.0754,0.0566,-0.0326,0.0213
P1P,P,1586143,0.8105,0.5048,0.0000,0.0000,0.6400,2.0980,-5.0433,7.9293,0.0686,-0.0474,0.0165
P1P,P,1586163,0.8127,0.5048,0.0000,0.0000,0.7096,2.0525,-5.1547,7.8575,0.0530,-0.0230,-0.0117
P1P,P,1586183,0.8116,0.5052,0.0000,0.0000,0.7066,2.1400,-5.2032,7.7778,0.0164,-0.0121,-0.0333
P1P,P,1586203,0.8130,0.5071,0.0000,0.0000,0.6305,2.0855,-5.1834,7.8407,-0.0125,-0.0276,-0.0280
P1P,P,1586223,0.8123,0.5112,0.0000,0.0000,0.7373,1.9831,-5.1176,7.9281,-0.0374,-0.0496,-0.0196
P1P,P,1586243,0.8130,0.5071,0.0000,0.0000,0.6512,1.9076,-4.9751,8.0317,-0.0456,-0.0444,-0.0179
P1P,P,1586263,0.8097,0.5108,0.0000,0.0000,0.6906,1.9070,-4.8924,8.1341,-0.0123,-0.0410,-0.0208
P1P,P,1586283,0.8072,0.5071,0.0000,0.0000,0.6612,1.8675,-4.8954,8.0844,-0.0045,-0.0348,-0.0135
P1P,P,1586303,0.8127,0.5043,0.0000,0.0000,0.6979,1.9100,-4.8577,8.1299,-0.0009,-0.0344,-0.0144
P1P,P,1586323,0.8108,0.5089,0.0000,0.0000,0.6728,2.0106,-4.8715,8.0628,0.0321,-0.0282,-0.0040
P1P,P,1586343,0.8108,0.5066,0.0000,0.0000,0.7251,2.0040,-4.9553,8.0089,0.0113,-0.0465,0.0049
P1P,P,1586363,0.8097,0.5080,0.0000,0.0000,0.6607,1.9717,-5.0098,7.9790,0.0289,-0.0425,-0.0071
P1P,P,1586383,0.8101,0.5025,0.0000,0.0000,0.6983,2.0034,-5.0679,7.9335,0.0153,-0.0183,-0.0136
P1P,P,1586403,0.8108,0.5025,0.0000,0.0000,0.6914,2.0639,-5.0008,7.9622,-0.0051,-0.0393,-0.0179
P1P,P,1586423,0.8112,0.5015,0.0000,0.0000,0.7161,1.9699,-5.0397,7.9527,0.0088,-0.0564,-0.0083
P1P,P,1586443,0.8112,0.5043,0.0000,0.0000,0.6581,1.9418,-5.0170,8.0209,0.0119,-0.0465,-0.0060
P1P,P,1586463,0.8086,0.5038,0.0000,0.0000,0.6906,1.9519,-5.0050,7.9569,0.0040,-0.0365,-0.0147
P1P,P,1586483,0.8112,0.5025,0.0000,0.0000,0.6529,1.9777,-4.9804,7.9916,-0.0140,-0.0456,-0.0164
P1P,P,1586503,0.8086,0.5066,0.0000,0.0000,0.7221,1.9837,-4.9325,7.9772,-0.0101,-0.0308,-0.0179
P1P,P,1586523,0.8101,0.5029,0.0000,0.0000,0.6586,2.0016,-4.9355,7.9820,-0.0072,-0.0288,-0.0203
P1P,P,1586543,0.8112,0.5020,0.0000,0.0000,0.6638,1.9825,-4.9655,7.9694,-0.0191,-0.0461,-0.0133
P1P,P,1586563,0.8127,0.5011,0.0000,0.0000,0.7044,1.9070,-4.9852,7.9880,0.0012,-0.0437,-0.0193
P1P,P,1586583,0.8094,0.5034,0.0000,0.0000,0.7602,1.9316,-5.0164,7.9197,-0.0009,-0.0159,-0.0232
P1P,P,1586603,0.8119,0.5034,0.0000,0.0000,0.6888,1.9891,-5.0128,7.9359,-0.0382,-0.0249,-0.0192
P1P,P,1586623,0.8112,0.5043,0.0000,0.0000,0.6668,1.9106,-4.9224,7.9479,-0.0492,-0.0406,-0.0128
P1P,P,1586643,0.8105,0.5020,0.0000,0.0000,0.7213,1.8466,-4.8571,8.0646,-0.0429,-0.0433,-0.0044
P1P,P,1586663,0.8108,0.5029,0.0000,0.0000,0.6586,1.8597,-4.8176,8.1832,-0.0193,-0.0278,0.0003
P1P,P,1586683,0.8112,0.5025,0.0000,0.0000,0.6279,1.9442,-4.8236,8.1802,0.0141,-0.0426,0.0085
P1P,P,1586703,0.8119,0.5029,0.0000,0.0000,0.6305,1.9412,-4.8391,8.0952,0.0340,-0.0464,0.0140
P1P,P,1586723,0.8101,0.5066,0.0000,0.0000,0.6854,2.0573,-4.8984,8.0521,0.0534,-0.0285,0.0073
P1P,P,1586743,0.8119,0.4941,0.0000,0.0000,0.6274,2.0621,-4.9679,7.9718,0.0498,-0.0258,-0.0047
P1P,P,1586763,0.8130,0.5043,0.0000,0.0000,0.6374,2.0465,-5.0230,7.8682,0.0237,-0.0329,-0.0119
P1P,P,1586783,0.8101,0.5094,0.0000,0.0000,0.6901,1.9897,-5.0517,7.8455,0.0027,-0.0352,-0.0199
P1P,P,1586803,0.8097,0.5038,0.0000,0.0000,0.7083,2.0184,-5.0493,7.9113,-0.0044,-0.0413,-0.0156
P1P,P,1586823,0.8101,0.5025,0.0000,0.0000,0.7135,1.9340,-5.0631,7.9688,-0.0088,-0.0360,-0.0215
P1P,P,1586843,0.8123,0.5029,0.0000,0.0000,0.6612,1.9064,-5.0032,7.9694,-0.0276,-0.0203,-0.0200
P1P,P,1586863,0.8112,0.4983,0.0000,0.0000,0.7221,1.9501,-4.9248,8.0491,-0.0345,-0.0269,-0.0207
P1P,P,1586883,0.8105,0.5029,0.0000,0.0000,0.7247,1.9867,-4.8469,8.0994,-0.0181,-0.0401,-0.0157
P1P,P,1586903,0.8086,0.5048,0.0000,0.0000,0.6806,1.8998,-4.8505,8.1143,0.0031,-0.0242,-0.0155
P1P,P,1586923,0.8112,0.5057,0.0000,0.0000,0.6884,2.0304,-4.9284,8.0413,-0.0100,-0.0103,-0.0183
P1P,P,1586943,0.8105,0.5025,0.0000,0.0000,0.6529,2.0879,-4.9002,8.0646,-0.0207,-0.0164,-0.0312
P1P,P,1586963,0.8094,0.5052,0.0000,0.0000,0.7178,2.0585,-4.8601,8.0760,-0.0037,-0.0159,-0.0456
P1P,P,1586983,0.8116,0.5071,0.0000,0.0000,0.6629,1.9998,-4.8739,8.0616,0.0029,-0.0056,-0.0588
P1P,P,1587003,0.8123,0.5085,0.0000,0.0000,0.7403,1.9382,-4.8930,8.0437,-0.0017,0.0045,-0.0646
P1P,P,1587023,0.8138,0.5020,0.0000,0.0000,0.6741,1.9687,-4.8948,8.0772,0.0187,0.0049,-0.0653
P1P,P,1587043,0.8090,0.5034,0.0000,0.0000,0.6508,1.9633,-4.9140,8.0503,0.0280,-0.0069,-0.0492
P1P,P,1587063,0.8119,0.5057,0.0000,0.0000,0.6512,1.9292,-4.9110,8.0580,0.0203,-0.0368,-0.0183
P1P,P,1587083,0.8101,0.5066,0.0000,0.0000,0.6495,1.9322,-5.0499,8.0353,0.0562,-0.0606,0.0109
P1P,P,1587103,0.8101,0.5057,0.0000,0.0000,0.6599,1.9298,-5.1176,7.9443,0.0484,-0.0629,0.0193
P1P,P,1587123,0.8127,0.5052,0.0000,0.0000,0.6836,2.0861,-5.0379,7.9473,0.0187,-0.0549,0.0203
P1P,P,1587143,0.8072,0.5071,0.0000,0.0000,0.6309,2.0956,-4.9212,7.9353,0.0141,-0.0681,0.0112
P1P,P,1587163,0.8108,0.5052,0.0000,0.0000,0.7070,1.9244,-4.8894,7.9515,0.0123,-0.0653,-0.0136
P1P,P,1587183,0.8094,0.5057,0.0000,0.0000,0.6279,1.8310,-4.9373,7.9371,-0.0035,-0.0432,-0.0230
P1P,P,1587203,0.8097,0.5085,0.0000,0.0000,0.6884,1.8256,-4.9427,8.0269,0.0032,-0.0346,-0.0195
P1P,P,1587223,0.8094,0.5043,0.0000,0.0000,0.6555,1.7609,-4.9086,8.0365,0.0171,-0.0410,0.0064
P1P,P,1587243,0.8061,0.5052,0.0000,0.0000,0.7057,1.7813,-4.9074,8.0820,0.0344,-0.0452,0.0249
P1P,P,1587263,0.8101,0.5066,0.0000,0.0000,0.6616,1.9190,-4.9391,8.1155,0.0678,-0.0172,0.0292
P1P,P,1587283,0.8097,0.5038,0.0000,0.0000,0.6568,2.0837,-4.9888,7.9982,0.0825,0.0061,0.0203
P1P,P,1587303,0.8097,0.5062,0.0000,0.0000,0.7027,2.1896,-4.9966,7.9664,0.0572,-0.0143,0.0277
P1P,P,1587323,0.8138,0.4974,0.0000,0.0000,0.7463,2.2567,-4.9212,7.9748,0.0402,-0.0526,0.0280
P1P,P,1587343,0.8090,0.5057,0.0000,0.0000,0.7347,2.2124,-4.9673,7.9598,0.0348,-0.0834,0.0346
P1P,P,1587363,0.8101,0.5001,0.0000,0.0000,0.7165,2.0837,-4.8984,7.9874,0.0031,-0.0879,0.0317
P1P,P,1587383,0.8097,0.5025,0.0000,0.0000,0.6620,1.9843,-4.8499,8.0802,-0.0121,-0.0775,0.0192
P1P,P,1587403,0.8105,0.5029,0.0000,0.0000,0.7117,1.9747,-4.8858,8.0622,0.0012,-0.0666,0.0093
P1P,P,1587423,0.8101,0.5089,0.0000,0.0000,0.7446,1.9477,-4.9086,8.0790,0.0020,-0.0678,0.0133
P1P,P,1587443,0.8101,0.5025,0.0000,0.0000,0.7104,1.8897,-4.8805,8.0874,0.0258,-0.0663,0.0161
P1P,P,1587463,0.8105,0.5029,0.0000,0.0000,0.6979,1.8472,-4.9343,8.0191,0.0649,-0.0576,0.0157
P1P,P,1587483,0.8108,0.5020,0.0000,0.0000,0.6849,1.9070,-5.0756,7.8593,0.0813,-0.0417,0.0069
P1P,P,1587503,0.8105,0.4964,0.0000,0.0000,0.7234,1.9711,-5.1158,7.7880,0.0648,-0.0261,0.0008
P1P,P,1587523,0.8094,0.5001,0.0000,0.0000,0.7273,2.0088,-5.1391,7.8503,0.0325,-0.0290,-0.0055
P1P,P,1587543,0.8086,0.4997,0.0000,0.0000,0.6919,2.0400,-5.1098,7.9143,0.0099,-0.0338,-0.0047
P1P,P,1587563,0.8086,0.5029,0.0000,0.0000,0.6793,2.0214,-5.0607,7.9503,0.0181,-0.0288,-0.0133
P1P,P,1587583,0.8108,0.5038,0.0000,0.0000,0.7044,2.0579,-4.9954,8.0323,0.0091,-0.0354,-0.0077
P1P,P,1587603,0.8116,0.5025,0.0000,0.0000,0.6849,2.0567,-4.9828,8.0449,-0.0015,-0.0517,-0.0048
P1P,P,1587623,0.8105,0.5011,0.0000,0.0000,0.7390,1.9867,-4.9379,8.0317,0.0121,-0.0528,-0.0116
P1P,P,1587643,0.8112,0.5034,0.0000,0.0000,0.6499,1.9609,-5.0116,7.9377,0.0201,-0.0338,-0.0266
P1P,P,1587663,0.8108,0.5001,0.0000,0.0000,0.6797,1.9046,-4.9930,7.9042,-0.0193,-0.0448,-0.0312
P1P,P,1587683,0.8108,0.5015,0.0000,0.0000,0.6521,1.7897,-5.0768,7.8772,-0.0382,-0.0454,-0.0211
P1P,P,1587703,0.8105,0.5029,0.0000,0.0000,0.6888,1.7585,-5.1355,7.8138,-0.0404,-0.0378,-0.0069
P1P,P,1587723,0.8105,0.5001,0.0000,0.0000,0.7195,1.7933,-5.0283,7.8976,-0.0767,-0.0640,0.0316
P1P,P,1587743,0.8127,0.5001,0.0000,0.0000,0.6724,1.7238,-4.8721,8.0664,-0.0302,-0.0867,0.0418
P1P,P,1587763,0.8101,0.5006,0.0000,0.0000,0.7126,1.6412,-4.8763,7.9724,0.0168,-0.0230,0.0121
P1P,P,1587783,0.8090,0.4988,0.0000,0.0000,0.7204,1.9519,-4.7781,7.9527,0.0153,0.0329,-0.0069
P1P,P,1587803,0.8090,0.5001,0.0000,0.0000,0.6616,1.9891,-4.6763,8.0095,0.0292,-0.0111,0.0039
P1P,P,1587823,0.8075,0.5015,0.0000,0.0000,0.7303,1.8723,-4.7350,7.9820,0.0986,0.0112,-0.0055
P1P,P,1587843,0.8094,0.5015,0.0000,0.0000,0.6127,1.9250,-4.9361,7.9263,0.1079,0.0497,-0.0294
P1P,P,1587863,0.8123,0.5006,0.0000,0.0000,0.6914,1.9268,-5.0655,7.8437,0.0871,0.0617,-0.0356
P1P,P,1587883,0.8116,0.5020,0.0000,0.0000,0.6352,1.9849,-5.0463,7.9024,0.0187,0.0316,-0.0023
P1P,P,1587903,0.8105,0.5011,0.0000,0.0000,0.6906,1.9759,-5.0421,7.9880,0.0011,0.0157,0.0284
P1P,P,1587923,0.8097,0.4997,0.0000,0.0000,0.7061,2.0489,-5.0116,8.1191,-0.0187,-0.0043,0.0537
P1P,P,1587943,0.8075,0.4983,0.0000,0.0000,0.6404,2.1166,-4.9643,8.2898,-0.0157,-0.0087,0.0667
P1P,P,1587963,0.8112,0.4969,0.0000,0.0000,0.6538,2.1423,-4.9301,8.4053,0.0039,-0.0225,0.0743
P1P,P,1587983,0.8112,0.4974,0.0000,0.0000,0.6495,2.2747,-4.9888,8.3227,-0.0067,-0.0538,0.0794
P1P,P,1588003,0.8105,0.5057,0.0000,0.0000,0.6741,2.3082,-4.9780,8.2706,0.0127,-0.0850,0.0655
P1P,P,1588023,0.8090,0.5011,0.0000,0.0000,0.6408,2.2148,-5.0786,8.1736,0.0500,-0.1191,0.0481
P1P,P,1588043,0.8105,0.5001,0.0000,0.0000,0.6586,2.1735,-5.0960,8.0550,0.0753,-0.0974,0.0264
P1P,P,1588063,0.8116,0.4978,0.0000,0.0000,0.6482,2.1118,-5.1158,7.8593,0.0713,-0.0817,-0.0104
P1P,P,1588083,0.8086,0.4992,0.0000,0.0000,0.6529,2.0238,-5.1385,7.7653,0.0208,-0.0683,-0.0313
P1P,P,1588103,0.8105,0.4988,0.0000,0.0000,0.6841,2.0136,-5.0002,7.8197,0.0039,-0.0564,-0.0374
P1P,P,1588123,0.8090,0.4951,0.0000,0.0000,0.7161,1.9537,-4.9589,7.8569,0.0059,-0.0516,-0.0333
P1P,P,1588143,0.8105,0.5043,0.0000,0.0000,0.6512,1.8639,-4.9391,7.8874,-0.0013,-0.0472,-0.0224
P1P,P,1588163,0.8105,0.5108,0.0000,0.0000,0.7005,1.8232,-4.9547,7.8904,-0.0127,-0.0340,-0.0047
P1P,P,1588183,0.8116,0.5117,0.0000,0.0000,0.6642,1.7831,-4.9763,7.9102,-0.0185,-0.0332,0.0133
P1P,P,1588203,0.8116,0.5307,0.0000,0.0000,0.6417,1.8711,-5.0397,7.8443,-0.0309,-0.0420,0.0314
P1P,P,1588223,0.8138,0.5547,0.0267,0.0000,0.6901,2.0052,-5.0140,7.9012,-0.0402,-0.0426,0.0496
P1P,P,1588243,0.8119,0.6005,0.0000,0.0000,0.7316,2.0621,-4.9218,7.9844,-0.0181,-0.0442,0.0561
P1P,P,1588263,0.8097,0.6028,0.0000,0.0000,0.6331,2.1453,-4.9290,7.9185,0.0065,-0.0408,0.0480
P1P,P,1588283,0.8123,0.5982,0.0000,0.0000,0.7122,2.1633,-5.0170,7.8724,0.0043,-0.0232,0.0346
P1P,P,1588303,0.8035,0.5954,0.0000,0.0000,0.6235,2.1908,-5.0762,7.8299,0.0001,-0.0156,0.0152
P1P,P,1588323,0.8112,0.5950,0.0000,0.0000,0.7091,2.2322,-5.1415,7.8233,0.0088,-0.0149,0.0113
P1P,P,1588343,0.8094,0.5954,0.0000,0.0000,0.6724,2.1705,-5.1960,7.8179,0.0145,-0.0199,0.0129
P1P,P,1588363,0.8090,0.5982,0.0000,0.0000,0.7377,2.2292,-5.2170,7.9377,-0.0052,-0.0180,0.0160
P1P,P,1588383,0.8134,0.5987,0.0000,0.0000,0.7009,2.2675,-5.1074,7.9628,-0.0256,-0.0159,0.0061
P1P,P,1588403,0.8108,0.5950,0.0000,0.0000,0.6547,2.3465,-5.0385,8.0922,-0.0077,-0.0208,-0.0029
P1P,P,1588423,0.8097,0.6010,0.0000,0.0000,0.6127,2.3926,-5.0080,8.0826,0.0069,-0.0297,-0.0112
P1P,P,1588443,0.8090,0.6098,0.0000,0.0000,0.7174,2.3220,-4.9906,8.1077,-0.0101,-0.0416,-0.0216
P1P,P,1588463,0.8068,0.6005,0.0000,0.0000,0.6888,2.2741,-4.9751,8.1030,-0.0009,-0.0397,-0.0301
P1P,P,1588483,0.8119,0.5968,0.0000,0.0000,0.7368,2.2699,-4.9439,8.0826,-0.0065,-0.0597,-0.0149
P1P,P,1588503,0.8145,0.6051,0.0000,0.0000,0.7083,2.1465,-5.0002,8.0095,-0.0160,-0.0947,-0.0020
P1P,P,1588523,0.8086,0.6010,0.0000,0.0000,0.7178,2.0681,-4.9613,8.0191,-0.0294,-0.0918,0.0059
P1P,P,1588543,0.8079,0.5991,0.0000,0.0000,0.6862,2.1094,-4.9290,8.0143,-0.0301,-0.0886,0.0080
P1P,P,1588563,0.8116,0.5977,0.0000,0.0000,0.7022,2.1166,-4.8667,8.0305,-0.0196,-0.1041,0.0125
P1P,P,1588583,0.8123,0.5973,0.0000,0.0000,0.6927,2.0681,-4.8607,7.9862,-0.0024,-0.0925,0.0037
P1P,P,1588603,0.8105,0.5977,0.0029,0.0000,0.6581,2.0723,-4.8601,7.9329,0.0128,-0.0693,-0.0125
P1P,P,1588623,0.8105,0.5968,0.0000,0.0000,0.7040,2.0729,-4.8936,7.8922,0.0268,-0.0614,-0.0213
P1P,P,1588643,0.8097,0.5940,0.0000,0.0000,0.6395,2.0364,-4.9116,7.8377,0.0260,-0.0542,-0.0258
P1P,P,1588663,0.8134,0.6000,0.0000,0.0000,0.7364,1.9843,-4.9104,7.8167,0.0159,-0.0501,-0.0261
P1P,P,1588683,0.8094,0.5959,0.0000,0.0000,0.7096,1.9466,-4.9284,7.8772,0.0045,-0.0486,-0.0301
P1P,P,1588703,0.8116,0.5931,0.0000,0.0000,0.7217,1.9328,-4.9122,7.9485,-0.0120,-0.0446,-0.0262
P1P,P,1588723,0.8112,0.5945,0.0000,0.0000,0.6979,1.9040,-4.9050,7.9359,-0.0119,-0.0336,-0.0250
P1P,P,1588743,0.8105,0.5926,0.0057,0.0000,0.7169,1.9513,-4.8930,7.9982,-0.0155,-0.0306,-0.0226
