person_id,label,timestamp,flex1,flex2,flex3,flex4,flex5,ax,ay,az,gx,gy,gz
P1Q,Q,1665363,0.9896,0.9872,0.9957,0.9583,1.0000,0.0000,0.0000,0.0000,0.0000,0.0000,0.0000
P1Q,Q,1665383,0.9874,0.9872,0.9825,0.9955,0.9696,0.0000,0.0000,0.0000,0.0000,0.0000,0.0000
P1Q,Q,1665403,0.9903,0.9851,0.9771,0.9694,1.0000,0.0000,0.0000,0.0000,0.0000,0.0000,0.0000
P1Q,Q,1665423,0.9892,0.9864,0.9810,0.9782,0.9583,0.0000,0.0000,0.0000,0.0000,0.0000,0.0000
P1Q,Q,1665443,0.9892,0.9847,0.9893,0.9817,0.9583,0.0000,0.0000,0.0000,0.0000,0.0000,0.0000
P1Q,Q,1665463,0.9881,0.9885,0.9884,0.9870,0.9448,0.0000,0.0000,0.0000,0.0000,0.0000,0.0000
P1Q,Q,1665483,0.9885,0.9872,0.9815,1.0000,0.9612,0.0000,0.0000,0.0000,0.0000,0.0000,0.0000
P1Q,Q,1665503,0.9889,0.9830,0.9854,1.0000,0.9557,0.0000,0.0000,0.0000,0.0000,0.0000,0.0000
P1Q,Q,1665523,0.9870,0.9843,0.9523,0.9962,1.0000,0.0000,0.0000,0.0000,0.0000,0.0000,0.0000
P1Q,Q,1665543,0.9859,0.9809,0.9888,0.9794,0.9528,0.0000,0.0000,0.0000,0.0000,0.0000,0.0000
P1Q,Q,1665563,0.9859,0.9809,0.9849,0.9897,0.9574,0.0000,0.0000,0.0000,0.0000,0.0000,0.0000
P1Q,Q,1665583,0.9878,0.9868,0.9820,0.9920,0.9662,0.0000,0.0000,0.0000,0.0000,0.0000,0.0000
P1Q,Q,1665603,0.9867,0.9855,0.9913,0.9978,0.9193,0.0000,0.0000,0.0000,0.0000,0.0000,0.0000
P1Q,Q,1665623,0.9885,0.9834,0.9879,1.0000,0.9683,0.0000,0.0000,0.0000,0.0000,0.0000,0.0000
P1Q,Q,1665643,0.9863,0.9860,0.9845,0.9836,1.0000,0.0000,0.0000,0.0000,0.0000,0.0000,0.0000
P1Q,Q,1665663,0.9881,0.9817,0.9825,0.9821,0.9796,0.0000,0.0000,0.0000,0.0000,0.0000,0.0000
P1Q,Q,1665683,0.9878,0.9851,0.9752,1.0000,0.9679,0.0000,0.0000,0.0000,0.0000,0.0000,0.0000
P1Q,Q,1665703,0.9885,0.9834,0.9737,0.9928,1.0000,0.0000,0.0000,0.0000,0.0000,0.0000,0.0000
P1Q,Q,1665723,0.9859,0.9826,0.9747,1.0000,0.9532,0.0000,0.0000,0.0000,0.0000,0.0000,0.0000
P1Q,Q,1665743,0.9870,0.9847,0.9674,0.9821,0.9780,0.0000,0.0000,0.0000,0.0000,0.0000,0.0000
P1Q,Q,1665763,0.9863,0.9805,0.9786,0.9847,0.9734,0.0000,0.0000,0.0000,0.0000,0.0000,0.0000
P1Q,Q,1665783,0.9863,0.9830,0.9747,0.9782,0.9612,0.0000,0.0000,0.0000,0.0000,0.0000,0.0000
P1Q,Q,1665803,0.9852,0.9826,0.9723,0.9859,0.9960,0.0000,0.0000,0.0000,0.0000,0.0000,0.0000
P1Q,Q,1665823,0.9874,0.9860,0.9815,0.9870,0.9901,0.0000,0.0000,0.0000,0.0000,0.0000,0.0000
P1Q,Q,1665843,0.9878,0.9813,0.9767,0.9786,0.9369,0.0000,0.0000,0.0000,0.0000,0.0000,0.0000
P1Q,Q,1665863,0.9848,0.9788,0.9727,0.9725,0.9713,0.0000,0.0000,0.0000,0.0000,0.0000,0.0000
P1Q,Q,1665883,0.9845,0.9758,0.9747,0.9939,1.0000,0.0000,0.0000,0.0000,0.0000,0.0000,0.0000
P1Q,Q,1665903,0.9841,0.9809,0.9806,1.0000,0.9729,0.0000,0.0000,0.0000,0.0000,0.0000,0.0000
P1Q,Q,1665923,0.9841,0.9771,0.9942,1.0000,0.9587,0.0000,0.0000,0.0000,0.0000,0.0000,0.0000
P1Q,Q,1665943,0.9826,0.9766,0.9830,0.9736,1.0000,0.0000,0.0000,0.0000,0.0000,0.0000,0.0000
P1Q,Q,1665963,0.9856,0.9792,0.9684,0.9981,0.9658,0.0000,0.0000,0.0000,0.0000,0.0000,0.0000
P1Q,Q,1665983,0.9845,0.9779,0.9903,0.9828,0.9272,0.0000,0.0000,0.0000,0.0000,0.0000,0.0000
P1Q,Q,1666003,0.9859,0.9809,1.0000,0.9571,0.9721,0.0000,0.0000,0.0000,0.0000,0.0000,0.0000
P1Q,Q,1666023,0.9834,0.9796,0.9771,0.9985,0.9327,0.0000,0.0000,0.0000,0.0000,0.0000,0.0000
P1Q,Q,1666043,0.9837,0.9817,0.9601,0.9851,1.0000,0.0000,0.0000,0.0000,0.0000,0.0000,0.0000
P1Q,Q,1666063,0.9826,0.9792,0.9669,0.9870,1.0000,0.0000,0.0000,0.0000,0.0000,0.0000,0.0000
P1Q,Q,1708823,0.9222,0.8965,0.8225,0.0000,0.0890,4.4482,-3.8877,7.4198,0.0694,-0.0518,-0.0212
P1Q,Q,1708843,0.9226,0.8961,0.8342,0.0000,0.0719,4.5565,-3.8698,7.4090,0.0602,-0.0597,-0.0013
P1Q,Q,1708883,0.9233,0.8999,0.8367,0.0000,0.1205,4.6709,-3.7051,7.4982,-0.0011,-0.0596,-0.0105
P1Q,Q,1708903,0.9222,0.9004,0.8333,0.0000,0.1025,4.6775,-3.6015,7.5689,0.0073,-0.0565,-0.0019
P1Q,Q,1708923,0.9215,0.8974,0.8299,0.0000,0.0911,4.6978,-3.6536,7.6072,0.0103,-0.0648,0.0015
P1Q,Q,1708943,0.9248,0.9029,0.8333,0.0000,0.0429,4.6433,-3.6428,7.6575,-0.0120,-0.0833,-0.0029
P1Q,Q,1708963,0.9222,0.8868,0.8250,0.0000,0.0689,4.4925,-3.6398,7.7030,0.0061,-0.0719,-0.0185
P1Q,Q,1708983,0.9237,0.8991,0.8333,0.0000,0.0786,4.5062,-3.6734,7.6772,0.0461,-0.0289,-0.0352
P1Q,Q,1709003,0.9255,0.8965,0.8269,0.0000,0.0584,4.5907,-3.7746,7.5461,0.0638,-0.0044,-0.0402
P1Q,Q,1709023,0.9251,0.8944,0.8289,0.0000,0.0266,4.6266,-3.8153,7.4282,0.0474,-0.0172,-0.0230
P1Q,Q,1709043,0.9233,0.9016,0.8230,0.0000,0.1025,4.5859,-3.8482,7.4186,0.0513,-0.0393,-0.0265
P1Q,Q,1709063,0.9240,0.8982,0.8333,0.0000,0.0312,4.4943,-3.8919,7.4090,0.0270,-0.0338,-0.0181
P1Q,Q,1709083,0.9240,0.8948,0.8303,0.0000,0.0266,4.6032,-3.7686,7.4886,-0.0253,-0.0518,-0.0007
P1Q,Q,1709103,0.9222,0.9016,0.8284,0.0000,0.1503,4.6266,-3.6937,7.6617,-0.0085,-0.0624,-0.0032
P1Q,Q,1709123,0.9218,0.8957,0.8284,0.0000,0.0442,4.6230,-3.7069,7.7054,0.0089,-0.0366,-0.0212
P1Q,Q,1709143,0.9215,0.8965,0.8284,0.0000,0.0408,4.6469,-3.6758,7.7557,0.0168,-0.0276,-0.0328
P1Q,Q,1709163,0.9211,0.8953,0.8455,0.0000,0.1201,4.5960,-3.6811,7.7042,0.0478,-0.0478,-0.0175
P1Q,Q,1709183,0.9237,0.8982,0.8260,0.0000,0.0807,4.5146,-3.7284,7.5976,0.0514,-0.0648,0.0011
P1Q,Q,1709203,0.9229,0.8978,0.8264,0.0000,0.1083,4.4631,-3.7740,7.5545,0.0505,-0.0614,0.0077
P1Q,Q,1709223,0.9248,0.8915,0.8235,0.0000,0.0555,4.4775,-3.8356,7.4024,0.0580,-0.0316,-0.0049
P1Q,Q,1709243,0.9215,0.9059,0.8294,0.0000,0.0375,4.5996,-3.8506,7.4234,0.0460,-0.0133,-0.0123
P1Q,Q,1709263,0.9240,0.8982,0.8279,0.0000,0.0563,4.6721,-3.8745,7.4485,0.0268,-0.0421,0.0083
P1Q,Q,1709283,0.9226,0.8991,0.8333,0.0000,0.0798,4.6541,-3.8422,7.4168,-0.0007,-0.0807,0.0238
P1Q,Q,1709303,0.9240,0.8995,0.8294,0.0000,0.0000,4.5966,-3.8464,7.4204,-0.0089,-0.0710,0.0199
P1Q,Q,1709323,0.9233,0.9050,0.8147,0.0000,0.0287,4.5505,-3.8416,7.4964,0.0105,-0.0484,-0.0052
P1Q,Q,1709343,0.9306,0.8995,0.8230,0.0000,0.0173,4.5727,-3.8464,7.5479,0.0486,-0.0278,-0.0193
P1Q,Q,1709363,0.9222,0.8940,0.8260,0.0000,0.0358,4.5799,-3.8787,7.5204,0.0416,-0.0284,-0.0312
P1Q,Q,1709383,0.9218,0.8940,0.8264,0.0000,0.0777,4.5547,-3.8482,7.5341,0.0075,-0.0476,-0.0217
P1Q,Q,1709403,0.9244,0.8970,0.8279,0.0000,0.1180,4.5206,-3.7811,7.5748,-0.0009,-0.0501,-0.0191
P1Q,Q,1709423,0.9218,0.8948,0.8240,0.0000,0.0282,4.4290,-3.8548,7.5222,0.0121,-0.0434,-0.0137
P1Q,Q,1709443,0.9237,0.9042,0.8357,0.0000,0.0475,4.4338,-3.8698,7.4276,-0.0095,-0.0246,-0.0016
P1Q,Q,1709463,0.9222,0.9025,0.8284,0.0000,0.0471,4.5499,-3.8135,7.5491,-0.0286,-0.0362,0.0105
P1Q,Q,1709483,0.9215,0.8915,0.8269,0.0000,0.0727,4.6110,-3.8111,7.5898,-0.0270,-0.0562,0.0137
P1Q,Q,1709503,0.9222,0.8982,0.8191,0.0000,0.0073,4.6224,-3.8081,7.6144,-0.0089,-0.0625,0.0084
P1Q,Q,1709523,0.9163,0.8940,0.8211,0.0000,0.0387,4.6212,-3.8608,7.6192,0.0120,-0.0477,-0.0165
P1Q,Q,1709543,0.9207,0.8982,0.8099,0.0000,0.0069,4.6703,-3.8242,7.5353,0.0060,-0.0180,-0.0124
P1Q,Q,1709563,0.9233,0.9033,0.8274,0.0000,0.0882,4.7978,-3.7332,7.5287,0.0152,-0.0402,-0.0105
P1Q,Q,1709583,0.9218,0.9063,0.8113,0.0000,0.0157,4.6044,-3.8075,7.4425,0.0257,-0.0585,-0.0228
P1Q,Q,1709603,0.9222,0.8999,0.8299,0.0000,0.0999,4.5080,-3.8254,7.4557,-0.0005,-0.0237,-0.0376
P1Q,Q,1709623,0.9204,0.8948,0.8128,0.0000,0.0261,4.5272,-3.7668,7.5701,-0.0171,-0.0199,-0.0338
P1Q,Q,1709643,0.9207,0.8970,0.8323,0.0000,0.0899,4.4978,-3.7428,7.6461,-0.0121,-0.0574,-0.0157
P1Q,Q,1709663,0.9233,0.8999,0.8367,0.0000,0.0182,4.4649,-3.7398,7.7293,0.0019,-0.0640,0.0005
P1Q,Q,1709683,0.9226,0.8948,0.8289,0.0000,0.0798,4.4955,-3.7183,7.7209,0.0298,-0.0456,0.0117
P1Q,Q,1709703,0.9226,0.9063,0.8367,0.0000,0.0781,4.4996,-3.7506,7.6467,0.0542,-0.0522,0.0147
P1Q,Q,1709723,0.9218,0.9037,0.8279,0.0000,0.0706,4.5188,-3.7332,7.5731,0.0566,-0.0652,0.0119
P1Q,Q,1709743,0.9226,0.8970,0.8313,0.0000,0.0467,4.5044,-3.7811,7.5275,0.0525,-0.0556,0.0096
P1Q,Q,1709763,0.9215,0.8948,0.8303,0.0000,0.0744,4.5990,-3.7488,7.5216,0.0305,-0.0321,0.0044
P1Q,Q,1709783,0.9218,0.8974,0.8255,0.0000,0.0396,4.6074,-3.7698,7.4820,0.0364,-0.0457,0.0055
P1Q,Q,1709803,0.9185,0.8995,0.8323,0.0000,0.0341,4.6457,-3.7578,7.5347,0.0346,-0.0685,0.0049
P1Q,Q,1709823,0.9215,0.8961,0.8143,0.0000,0.0802,4.5224,-3.7859,7.5784,0.0382,-0.0617,-0.0040
P1Q,Q,1709843,0.9226,0.9088,0.8235,0.0000,0.0823,4.5296,-3.8177,7.5623,0.0265,-0.0370,-0.0156
P1Q,Q,1709863,0.9222,0.8982,0.8635,0.0000,0.1037,4.5386,-3.7949,7.5659,0.0234,-0.0381,-0.0208
P1Q,Q,1709883,0.9218,0.9071,0.8274,0.0000,0.0958,4.4206,-3.8195,7.5269,0.0378,-0.0446,-0.0188
P1Q,Q,1709903,0.9215,0.8987,0.8206,0.0000,0.0769,4.3703,-3.8829,7.4605,0.0397,-0.0472,-0.0205
P1Q,Q,1709923,0.9218,0.8855,0.8279,0.0000,0.0895,4.4308,-3.8949,7.4719,0.0201,-0.0212,-0.0215
P1Q,Q,1709943,0.9222,0.8995,0.8347,0.0000,0.0266,4.4805,-3.8931,7.5144,0.0282,-0.0191,-0.0208
P1Q,Q,1709963,0.9204,0.8987,0.8167,0.0000,0.0677,4.6290,-3.8710,7.5144,0.0183,-0.0388,-0.0076
P1Q,Q,1709983,0.9222,0.8974,0.8294,0.0000,0.0249,4.5859,-3.8135,7.5659,0.0016,-0.0544,-0.0087
P1Q,Q,1710003,0.9189,0.8944,0.8201,0.0000,0.0781,4.5960,-3.7590,7.6353,0.0281,-0.0394,-0.0230
P1Q,Q,1710023,0.9204,0.8965,0.8474,0.0000,0.1255,4.5925,-3.8069,7.5659,0.0433,-0.0304,-0.0241
P1Q,Q,1710043,0.9211,0.8915,0.8264,0.0000,0.0060,4.6260,-3.7626,7.6162,0.0153,-0.0464,-0.0212
P1Q,Q,1710063,0.9218,0.8902,0.8069,0.0000,0.0823,4.5266,-3.7680,7.6132,0.0358,-0.0465,-0.0201
P1Q,Q,1710083,0.9251,0.8948,0.8338,0.0000,0.1071,4.5134,-3.8536,7.5940,0.0690,-0.0348,-0.0354
P1Q,Q,1710103,0.9226,0.8999,0.8318,0.0000,0.0861,4.5523,-3.8943,7.5180,0.0641,-0.0350,-0.0334
P1Q,Q,1710123,0.9229,0.8961,0.8289,0.0000,0.0471,4.4972,-3.9979,7.4048,0.0401,-0.0405,-0.0212
P1Q,Q,1710143,0.9229,0.9025,0.8133,0.0000,0.1004,4.5272,-3.9614,7.4533,0.0224,-0.0478,-0.0139
P1Q,Q,1710163,0.9226,0.8910,0.8357,0.0000,0.1327,4.5098,-3.9302,7.4431,0.0236,-0.0577,0.0011
P1Q,Q,1710183,0.9218,0.8974,0.8362,0.0000,0.0958,4.4847,-3.9685,7.4844,0.0288,-0.0548,-0.0035
P1Q,Q,1710203,0.9226,0.8931,0.8313,0.0000,0.0790,4.5499,-3.9572,7.5048,0.0224,-0.0401,-0.0128
P1Q,Q,1710223,0.9284,0.8982,0.8338,0.0000,0.0811,4.5098,-3.9302,7.5437,0.0089,-0.0422,-0.0153
P1Q,Q,1710243,0.9218,0.8944,0.8147,0.0000,0.0551,4.4745,-3.9254,7.5078,0.0160,-0.0404,-0.0109
P1Q,Q,1710263,0.9244,0.8957,0.8357,0.0000,0.0333,4.4978,-3.9308,7.4916,0.0322,-0.0386,-0.0039
P1Q,Q,1710283,0.9229,0.9054,0.8362,0.0000,0.0727,4.5559,-3.9512,7.4725,0.0362,-0.0594,0.0000
P1Q,Q,1710303,0.9215,0.8948,0.8328,0.0000,0.0161,4.4877,-3.9578,7.5102,0.0304,-0.0644,-0.0032
P1Q,Q,1710323,0.9204,0.8991,0.8303,0.0000,0.0337,4.4835,-3.9470,7.4838,0.0393,-0.0338,-0.0246
P1Q,Q,1710343,0.9222,0.8974,0.8269,0.0000,0.0572,4.5266,-3.9859,7.4515,0.0454,-0.0187,-0.0312
P1Q,Q,1710363,0.9215,0.8957,0.8318,0.0000,0.0417,4.4841,-4.0087,7.4485,0.0404,-0.0320,-0.0306
P1Q,Q,1710383,0.9233,0.8948,0.8455,0.0000,0.0907,4.4386,-3.9907,7.4162,-0.0036,-0.0171,-0.0246
P1Q,Q,1710403,0.9218,0.8953,0.8269,0.0000,0.0807,4.5176,-3.9524,7.4060,-0.0269,-0.0152,-0.0197
P1Q,Q,1710423,0.9222,0.9029,0.8260,0.0000,0.0241,4.5709,-3.8997,7.4778,-0.0153,-0.0253,-0.0204
P1Q,Q,1710443,0.9229,0.9008,0.8333,0.0000,0.0161,4.4823,-3.9093,7.5084,-0.0015,-0.0417,-0.0188
P1Q,Q,1710463,0.9207,0.8961,0.8347,0.0000,0.0484,4.4422,-3.9021,7.5413,-0.0088,-0.0384,-0.0053
P1Q,Q,1710483,0.9229,0.8961,0.8269,0.0000,0.0077,4.4769,-3.9117,7.5180,-0.0133,-0.0284,-0.0041
P1Q,Q,1710503,0.9215,0.9088,0.8230,0.0000,0.0371,4.5278,-3.8710,7.4928,-0.0113,-0.0296,-0.0105
P1Q,Q,1710523,0.9215,0.8940,0.8323,0.0000,0.0563,4.5457,-3.9063,7.5054,0.0112,-0.0350,-0.0056
P1Q,Q,1710543,0.9215,0.9025,0.8050,0.0000,0.0425,4.5577,-3.8865,7.5329,0.0089,-0.0384,-0.0087
P1Q,Q,1710563,0.9211,0.8982,0.8211,0.0000,0.0350,4.5787,-3.8829,7.5395,-0.0021,-0.0285,-0.0149
P1Q,Q,1710583,0.9237,0.8957,0.8294,0.0000,0.0488,4.6074,-3.8260,7.5766,0.0024,-0.0268,-0.0276
P1Q,Q,1710603,0.9240,0.8953,0.8216,0.0000,0.0719,4.4116,-3.8542,7.5599,0.0172,-0.0457,-0.0344
P1Q,Q,1710623,0.9229,0.9046,0.8167,0.0000,0.0220,4.3320,-3.8614,7.5467,-0.0051,-0.0346,-0.0242
P1Q,Q,1710643,0.9233,0.8961,0.8303,0.0000,0.0769,4.3332,-3.8727,7.5772,0.0005,-0.0226,-0.0172
P1Q,Q,1710663,0.9211,0.9076,0.8191,0.0000,0.0245,4.4104,-3.9524,7.5222,0.0068,-0.0384,0.0088
P1Q,Q,1710683,0.9218,0.8940,0.8338,0.0000,0.0194,4.3883,-3.9679,7.5018,0.0009,-0.0687,0.0324
P1Q,Q,1710703,0.9200,0.8931,0.8338,0.0000,0.0521,4.3913,-3.9883,7.4862,0.0092,-0.0578,0.0298
P1Q,Q,1710723,0.9222,0.8957,0.8338,0.0000,0.0471,4.3979,-4.0847,7.4018,0.0378,-0.0457,0.0199
P1Q,Q,1710743,0.9167,0.8910,0.8235,0.0000,0.0190,4.5930,-4.0422,7.3108,-0.0088,-0.0526,0.0402
P1Q,Q,1710763,0.9237,0.8957,0.8294,0.0000,0.0450,4.5978,-3.9751,7.3809,-0.0406,-0.0687,0.0512
P1Q,Q,1710783,0.9226,0.8910,0.8440,0.0000,0.0031,4.5942,-3.9296,7.4192,-0.0288,-0.0556,0.0346
P1Q,Q,1710803,0.9226,0.8999,0.8601,0.0000,0.0765,4.6469,-3.9093,7.4252,-0.0380,-0.0374,0.0165
P1Q,Q,1710823,0.9233,0.9020,0.8347,0.0000,0.0232,4.6164,-3.8428,7.5425,-0.0678,-0.0322,0.0104
P1Q,Q,1710843,0.9222,0.9025,0.8352,0.0000,0.0488,4.5266,-3.7680,7.6820,-0.0584,-0.0338,0.0116
P1Q,Q,1710863,0.9204,0.8936,0.8289,0.0000,0.1016,4.3709,-3.8350,7.6754,-0.0244,-0.0321,0.0081
P1Q,Q,1710883,0.9222,0.8948,0.8104,0.0000,0.0823,4.4242,-3.8727,7.6485,-0.0313,-0.0104,0.0161
P1Q,Q,1710903,0.9218,0.8953,0.8308,0.0000,0.0266,4.4553,-3.8260,7.6269,-0.0313,-0.0285,0.0358
P1Q,Q,1710923,0.9185,0.8961,0.8318,0.0000,0.0853,4.3476,-3.8248,7.5401,-0.0187,-0.0593,0.0526
P1Q,Q,1710943,0.9215,0.8927,0.8196,0.0000,0.0471,4.3188,-3.8542,7.5216,0.0080,-0.0410,0.0429
P1Q,Q,1710963,0.9218,0.9004,0.8294,0.0000,0.0412,4.3122,-3.9194,7.4767,0.0277,-0.0131,0.0402
P1Q,Q,1710983,0.9218,0.8982,0.8303,0.0000,0.0421,4.5302,-3.7925,7.5479,0.0021,-0.0304,0.0751
P1Q,Q,1711003,0.9229,0.8940,0.8342,0.0000,0.0425,4.7787,-3.7416,7.5958,0.0012,-0.0807,0.1021
P1Q,Q,1711023,0.9218,0.8978,0.8318,0.0000,0.1037,5.0265,-3.6578,7.6066,0.0099,-0.0863,0.0791
P1Q,Q,1711043,0.9237,0.8999,0.8264,0.0000,0.0438,5.2283,-3.6692,7.5844,0.0193,-0.0998,0.0310
P1Q,Q,1711063,0.9215,0.8931,0.8269,0.0000,0.0396,4.9355,-3.7734,7.5281,0.0410,-0.0606,-0.0476
P1Q,Q,1711083,0.9204,0.9016,0.8284,0.0000,0.0958,4.6667,-3.8410,7.4509,0.0133,0.0151,-0.1104
P1Q,Q,1711103,0.9193,0.9016,0.8230,0.0000,0.0224,4.3541,-3.8674,7.4419,-0.0328,0.0350,-0.1232
P1Q,Q,1711123,0.9273,0.8902,0.7972,0.0000,0.1020,4.0033,-3.9051,7.4898,-0.0284,0.0373,-0.0954
P1Q,Q,1711143,0.9218,0.9025,0.8201,0.0000,0.0702,3.9650,-3.8704,7.5629,-0.0237,0.0153,-0.0304
P1Q,Q,1711163,0.9215,0.8948,0.8323,0.0000,0.1389,4.1877,-3.7219,7.5635,-0.0350,-0.0378,0.0521
P1Q,Q,1711183,0.9207,0.8961,0.8138,0.0000,0.0710,4.4206,-3.6578,7.6479,-0.0141,-0.0801,0.0917
P1Q,Q,1711203,0.9218,0.8974,0.8299,0.0000,0.0438,4.7613,-3.6530,7.6778,0.0004,-0.0786,0.0846
P1Q,Q,1711223,0.9207,0.8974,0.8079,0.0000,0.0538,4.8451,-3.6991,7.6251,-0.0143,-0.0653,0.0534
P1Q,Q,1711243,0.9251,0.8919,0.8391,0.0000,0.0987,4.8152,-3.7183,7.6054,-0.0021,-0.0248,0.0091
P1Q,Q,1711263,0.9226,0.8957,0.8299,0.0000,0.0756,4.7451,-3.8171,7.5311,0.0001,-0.0079,-0.0250
P1Q,Q,1711283,0.9226,0.9008,0.8328,0.0000,0.0559,4.4799,-3.8440,7.5425,-0.0100,-0.0049,-0.0394
P1Q,Q,1711303,0.9215,0.8999,0.8494,0.0000,0.0874,4.3625,-3.8141,7.5485,-0.0012,0.0136,-0.0356
P1Q,Q,1711323,0.9185,0.8974,0.8299,0.0000,0.1155,4.4134,-3.7847,7.5162,0.0059,-0.0087,-0.0183
P1Q,Q,1711343,0.9229,0.8923,0.8211,0.0000,0.1146,4.4404,-3.6746,7.5683,-0.0037,-0.0612,0.0218
P1Q,Q,1711363,0.9204,0.8927,0.8391,0.0000,0.1243,4.6014,-3.6105,7.6293,0.0069,-0.0893,0.0545
P1Q,Q,1711383,0.9215,0.8936,0.8118,0.0000,0.0949,4.7385,-3.6482,7.6587,0.0152,-0.1102,0.0682
P1Q,Q,1711403,0.9251,0.8970,0.8338,0.0000,0.0446,4.7727,-3.6368,7.6832,0.0113,-0.1238,0.0582
P1Q,Q,1711423,0.9218,0.8953,0.8338,0.0000,0.1188,4.7427,-3.6410,7.6862,0.0207,-0.0935,0.0305
P1Q,Q,1711443,0.9233,0.8978,0.8328,0.0000,0.0828,4.7116,-3.7195,7.6443,0.0250,-0.0530,-0.0113
P1Q,Q,1711463,0.9222,0.8961,0.8333,0.0000,0.0576,4.7499,-3.6889,7.5994,0.0196,-0.0309,-0.0413
P1Q,Q,1711483,0.9233,0.8923,0.8308,0.0000,0.0350,4.5547,-3.7267,7.5359,0.0380,-0.0432,-0.0466
P1Q,Q,1711503,0.9196,0.8953,0.8240,0.0000,0.1041,4.4254,-3.8213,7.4928,0.0393,-0.0400,-0.0421
P1Q,Q,1711523,0.9218,0.8919,0.8303,0.0000,0.0500,4.3092,-3.9356,7.3826,0.0300,-0.0281,-0.0356
P1Q,Q,1711543,0.9207,0.8915,0.8318,0.0000,0.0798,4.5038,-3.8488,7.4539,-0.0328,-0.0368,-0.0041
P1Q,Q,1711563,0.9218,0.8919,0.8382,0.0000,0.0165,4.4356,-3.8895,7.4958,-0.0039,-0.0818,0.0083
P1Q,Q,1711583,0.9233,0.8991,0.8323,0.0000,0.0475,4.1134,-4.0296,7.4162,0.0020,-0.0574,0.0043
P1Q,Q,1711603,0.9196,0.8948,0.8421,0.0000,0.0488,3.8835,-4.0655,7.3635,-0.0450,0.0155,0.0065
P1Q,Q,1711623,0.9240,0.8940,0.8245,0.0000,0.0190,3.9566,-3.9117,7.3425,-0.0610,0.0770,0.0330
P1Q,Q,1711643,0.9215,0.8931,0.8445,0.0000,0.0945,4.3715,-3.8057,7.3437,-0.0646,0.0596,0.0789
P1Q,Q,1711663,0.9211,0.8910,0.8323,0.0000,0.0454,4.9517,-3.6650,7.6317,-0.0769,-0.0426,0.1523
P1Q,Q,1711683,0.9218,0.9084,0.8284,0.0000,0.0308,5.2403,-3.4171,7.8640,-0.0605,-0.2213,0.2173
P1Q,Q,1711703,0.9233,0.8948,0.8206,0.0000,0.0509,5.1008,-3.4063,7.8808,-0.0108,-0.3126,0.2202
P1Q,Q,1711723,0.9233,0.8902,0.8333,0.0000,0.0463,4.8385,-3.4291,7.8126,0.0116,-0.2382,0.1272
P1Q,Q,1711743,0.9207,0.8923,0.8089,0.0000,0.0337,4.7709,-3.4279,7.8718,0.0013,-0.0673,0.0020
P1Q,Q,1711763,0.9237,0.8982,0.8196,0.0000,0.0295,4.9691,-3.3578,8.0389,-0.0011,0.0378,-0.0817
P1Q,Q,1711783,0.9222,0.8948,0.8186,0.0000,0.0597,5.0032,-3.2824,8.0580,0.0296,-0.0212,-0.0866
P1Q,Q,1711803,0.9167,0.8885,0.8474,0.0000,0.0308,4.6697,-3.2890,7.8976,0.0782,-0.1017,-0.0702
P1Q,Q,1711823,0.9204,0.8948,0.8235,0.0000,0.0207,4.4170,-3.3452,7.7455,0.1244,-0.0789,-0.0841
P1Q,Q,1711843,0.9233,0.8953,0.8513,0.0000,0.0442,4.3751,-3.4818,7.6293,0.1492,-0.0316,-0.0983
P1Q,Q,1711863,0.9233,0.8898,0.8313,0.0000,0.0127,4.3488,-3.5919,7.4976,0.1544,-0.0322,-0.0889
P1Q,Q,1711883,0.9222,0.9059,0.8269,0.0000,0.0492,4.3092,-3.7680,7.4425,0.1322,-0.0472,-0.0739
P1Q,Q,1711903,0.9215,0.8902,0.8274,0.0000,0.0459,4.2506,-3.8596,7.4611,0.0851,-0.0477,-0.0509
P1Q,Q,1711923,0.9211,0.8965,0.8313,0.0000,0.0161,4.2548,-3.9470,7.4635,0.0392,-0.0388,-0.0316
P1Q,Q,1711943,0.9204,0.8970,0.8294,0.0000,0.0534,4.3015,-4.0093,7.4204,0.0266,-0.0187,-0.0293
P1Q,Q,1711963,0.9226,0.9025,0.8162,0.0000,0.0832,4.3871,-4.0314,7.3563,0.0151,0.0092,-0.0428
P1Q,Q,1711983,0.9211,0.8936,0.8245,0.0000,0.0517,4.4835,-4.0170,7.4084,-0.0048,0.0005,-0.0466
P1Q,Q,1712003,0.9229,0.8965,0.8440,0.0000,0.0739,4.5134,-3.9410,7.4641,-0.0085,-0.0308,-0.0417
P1Q,Q,1712023,0.9218,0.8957,0.8260,0.0000,0.0215,4.3715,-3.8835,7.4222,-0.0080,-0.0265,-0.0362
P1Q,Q,1712043,0.9244,0.8974,0.8172,0.0000,0.0853,4.3152,-3.7542,7.4647,-0.0370,-0.0015,-0.0356
P1Q,Q,1712063,0.9240,0.8902,0.8382,0.0000,0.0538,4.3518,-3.7452,7.5461,-0.0478,0.0036,-0.0233
P1Q,Q,1712083,0.9196,0.8910,0.8372,0.0000,0.0295,4.4326,-3.6476,7.6736,-0.0713,-0.0109,-0.0023
P1Q,Q,1712103,0.9211,0.9016,0.8323,0.0000,0.0333,4.3763,-3.5871,7.8257,-0.0719,-0.0173,0.0121
P1Q,Q,1712123,0.9218,0.8927,0.8313,0.0000,0.1067,4.4781,-3.5668,7.9293,-0.0473,-0.0164,0.0282
P1Q,Q,1712143,0.9218,0.8898,0.8074,0.0000,0.1041,4.5835,-3.6051,7.9078,-0.0107,-0.0312,0.0369
P1Q,Q,1712163,0.9215,0.8923,0.8391,0.0000,0.0241,4.6116,-3.6578,7.8167,0.0272,-0.0345,0.0362
P1Q,Q,1712183,0.9200,0.8931,0.8411,0.0000,0.0337,4.6829,-3.7063,7.6856,0.0582,-0.0257,0.0208
P1Q,Q,1712203,0.9215,0.8957,0.8347,0.0000,0.0299,4.7110,-3.8087,7.5467,0.0671,-0.0232,0.0103
P1Q,Q,1712223,0.9218,0.8940,0.8328,0.0000,0.0421,4.6451,-3.8817,7.4611,0.0546,-0.0221,-0.0072
P1Q,Q,1712243,0.9211,0.8953,0.8367,0.0000,0.0811,4.6511,-3.8757,7.4545,0.0420,-0.0164,-0.0197
P1Q,Q,1712263,0.9215,0.8944,0.8352,0.0000,0.1041,4.6344,-3.8979,7.4880,0.0270,-0.0322,-0.0163
P1Q,Q,1712283,0.9222,0.8991,0.8450,0.0000,0.1171,4.6026,-3.7943,7.5258,0.0213,-0.0528,-0.0175
P1Q,Q,1712303,0.9244,0.8906,0.8328,0.0000,0.0978,4.5278,-3.8386,7.5677,0.0358,-0.0516,-0.0272
P1Q,Q,1712323,0.9215,0.8906,0.8352,0.0000,0.0765,4.5434,-3.8117,7.6233,0.0196,-0.0429,-0.0354
P1Q,Q,1712343,0.9211,0.9012,0.8347,0.0000,0.0299,4.5392,-3.7626,7.6275,0.0293,-0.0537,-0.0318
P1Q,Q,1712363,0.9226,0.8906,0.8333,0.0000,0.0576,4.5092,-3.7566,7.6413,0.0536,-0.0636,-0.0244
P1Q,Q,1712383,0.9222,0.8931,0.8401,0.0000,0.0710,4.4607,-3.8015,7.5311,0.0416,-0.0508,-0.0191
P1Q,Q,1712403,0.9215,0.8961,0.8274,0.0000,0.1238,4.5392,-3.7811,7.5252,0.0242,-0.0422,-0.0195
P1Q,Q,1712423,0.9218,0.8915,0.8333,0.0000,0.1071,4.5224,-3.8069,7.4832,0.0422,-0.0428,-0.0226
P1Q,Q,1712443,0.9218,0.8948,0.8377,0.0000,0.0727,4.5230,-3.7913,7.4946,0.0266,-0.0289,-0.0221
P1Q,Q,1712463,0.9255,0.8902,0.8089,0.0000,0.0739,4.4984,-3.8189,7.5269,0.0087,-0.0277,-0.0272
P1Q,Q,1712483,0.9218,0.8982,0.8411,0.0000,0.0446,4.4505,-3.8057,7.5593,-0.0003,-0.0349,-0.0189
P1Q,Q,1712503,0.9215,0.8940,0.8333,0.0000,0.0798,4.4679,-3.7566,7.5671,0.0005,-0.0432,-0.0059
P1Q,Q,1712523,0.9218,0.8906,0.8308,0.0000,0.0081,4.4607,-3.7452,7.6383,-0.0020,-0.0473,0.0031
P1Q,Q,1712543,0.9211,0.8910,0.8172,0.0000,0.0828,4.4715,-3.7889,7.6006,-0.0092,-0.0400,0.0057
P1Q,Q,1712563,0.9207,0.8906,0.8162,0.0000,0.0832,4.5068,-3.7249,7.6192,-0.0024,-0.0404,-0.0028
P1Q,Q,1712583,0.9211,0.8868,0.8401,0.0000,0.0521,4.5541,-3.7422,7.6461,0.0099,-0.0469,0.0003
P1Q,Q,1712603,0.9222,0.9050,0.8162,0.0000,0.0739,4.5284,-3.7027,7.6695,0.0273,-0.0601,0.0020
P1Q,Q,1712623,0.9248,0.8923,0.8318,0.0000,0.1054,4.4649,-3.7973,7.5862,0.0376,-0.0414,-0.0091
P1Q,Q,1712643,0.9240,0.8982,0.8269,0.0000,0.0484,4.5350,-3.8296,7.5599,0.0145,-0.0167,-0.0188
P1Q,Q,1712663,0.9204,0.9109,0.8245,0.0000,0.1218,4.4679,-3.8225,7.5910,0.0008,-0.0237,-0.0176
P1Q,Q,1712683,0.9226,0.8948,0.8362,0.0000,0.0551,4.4458,-3.8045,7.6186,0.0176,-0.0357,-0.0123
P1Q,Q,1712703,0.9218,0.8885,0.8206,0.0000,0.1088,4.3739,-3.8380,7.5539,0.0195,-0.0313,-0.0139
P1Q,Q,1712723,0.9215,0.8915,0.8240,0.0000,0.0551,4.3991,-3.8554,7.4910,0.0080,-0.0193,-0.0156
P1Q,Q,1712743,0.9207,0.8931,0.8411,0.0000,0.0840,4.4709,-3.7907,7.5970,-0.0056,-0.0256,-0.0044
P1Q,Q,1712763,0.9226,0.8991,0.8328,0.0000,0.1306,4.4691,-3.7686,7.5952,0.0011,-0.0468,0.0099
P1Q,Q,1712783,0.9222,0.8961,0.8294,0.0000,0.0966,4.4428,-3.7656,7.5814,-0.0149,-0.0502,0.0171
P1Q,Q,1712803,0.9222,0.8927,0.8167,0.0000,0.0106,4.4440,-3.7650,7.6024,0.0069,-0.0418,0.0040
P1Q,Q,1712823,0.9222,0.8910,0.8328,0.0000,0.1188,4.4392,-3.8057,7.5820,0.0125,-0.0297,0.0041
P1Q,Q,1712843,0.9229,0.8919,0.8362,0.0000,0.0387,4.4781,-3.7656,7.5862,-0.0005,-0.0241,0.0103
P1Q,Q,1712863,0.9222,0.9088,0.8391,0.0000,0.0404,4.5685,-3.7901,7.5341,0.0188,-0.0336,0.0089
P1Q,Q,1712883,0.9255,0.8948,0.8113,0.0000,0.0505,4.5978,-3.8242,7.5114,0.0123,-0.0494,0.0156
P1Q,Q,1712903,0.9248,0.8957,0.8318,0.0000,0.0505,4.5541,-3.7410,7.5090,-0.0083,-0.0476,0.0087
P1Q,Q,1712923,0.9240,0.8906,0.8206,0.0000,0.1134,4.6421,-3.7740,7.6102,-0.0021,-0.0417,-0.0015
P1Q,Q,1712943,0.9218,0.8948,0.8396,0.0000,0.0530,4.6098,-3.7763,7.5868,0.0177,-0.0430,-0.0044
P1Q,Q,1712963,0.9229,0.8961,0.8484,0.0000,0.0513,4.5110,-3.8069,7.5689,0.0322,-0.0408,-0.0139
P1Q,Q,1712983,0.9237,0.8940,0.8386,0.0000,0.0911,4.4721,-3.8242,7.4635,0.0075,-0.0209,-0.0191
P1Q,Q,1713003,0.9237,0.8978,0.8445,0.0000,0.0739,4.4422,-3.8165,7.4958,-0.0084,-0.0185,-0.0181
P1Q,Q,1713023,0.9233,0.8915,0.8333,0.0000,0.0274,4.4446,-3.8278,7.5138,-0.0088,-0.0233,-0.0020
P1Q,Q,1713043,0.9226,0.9004,0.8279,0.0000,0.0186,4.4811,-3.7973,7.5425,-0.0100,-0.0308,0.0061
P1Q,Q,1713063,0.9211,0.8948,0.8230,0.0000,0.0211,4.5140,-3.7219,7.6192,-0.0163,-0.0440,0.0164
P1Q,Q,1713083,0.9233,0.8948,0.8362,0.0000,0.0752,4.5116,-3.7284,7.6862,0.0043,-0.0434,0.0168
P1Q,Q,1713103,0.9237,0.8974,0.8386,0.0000,0.0371,4.5769,-3.6793,7.7227,0.0108,-0.0262,0.0160
P1Q,Q,1713123,0.9207,0.8936,0.8352,0.0000,0.0974,4.6445,-3.7243,7.6653,0.0141,-0.0352,0.0104
P1Q,Q,1713143,0.9233,0.8953,0.8386,0.0000,0.0492,4.6380,-3.7177,7.6635,0.0337,-0.0381,-0.0025
P1Q,Q,1713163,0.9226,0.8940,0.8386,0.0000,0.0911,4.5925,-3.7494,7.5713,0.0526,-0.0384,-0.0131
P1Q,Q,1713183,0.9292,0.9020,0.8455,0.0000,0.0530,4.5655,-3.7787,7.4832,0.0390,-0.0456,-0.0077
P1Q,Q,1713203,0.9240,0.8919,0.8294,0.0000,0.0505,4.5068,-3.8063,7.4922,0.0163,-0.0461,-0.0099
P1Q,Q,1713223,0.9229,0.8855,0.8421,0.0000,0.0744,4.4829,-3.7931,7.5533,0.0100,-0.0409,-0.0071
P1Q,Q,1713243,0.9222,0.8936,0.8264,0.0000,0.1096,4.4823,-3.8344,7.5353,0.0069,-0.0494,0.0013
P1Q,Q,1713263,0.9306,0.8910,0.8303,0.0000,0.1067,4.4841,-3.7931,7.5653,0.0085,-0.0473,0.0053
P1Q,Q,1713283,0.9200,0.8957,0.8362,0.0000,0.0727,4.4679,-3.8111,7.5431,0.0133,-0.0392,0.0044
P1Q,Q,1713303,0.9233,0.8961,0.8269,0.0000,0.0836,4.5188,-3.8213,7.5138,0.0025,-0.0321,0.0063
P1Q,Q,1713323,0.9211,0.8982,0.8479,0.0000,0.0794,4.5703,-3.7997,7.5287,0.0040,-0.0428,0.0021
P1Q,Q,1713343,0.9215,0.8957,0.8406,0.0000,0.0249,4.5541,-3.8296,7.4940,0.0108,-0.0329,0.0009
P1Q,Q,1713363,0.9255,0.8957,0.8538,0.0000,0.0798,4.5763,-3.7596,7.5677,-0.0131,-0.0250,-0.0149
P1Q,Q,1713383,0.9222,0.8910,0.8333,0.0000,0.0828,4.5715,-3.7093,7.6419,0.0061,-0.0321,-0.0165
P1Q,Q,1713403,0.9237,0.8944,0.8508,0.0000,0.0446,4.4978,-3.7811,7.6216,0.0051,-0.0420,-0.0151
P1Q,Q,1713423,0.9240,0.9020,0.8421,0.0000,0.0140,4.4901,-3.6871,7.6497,-0.0001,-0.0402,-0.0071
P1Q,Q,1713443,0.9215,0.8940,0.8230,0.0000,0.0886,4.4380,-3.7308,7.6227,0.0273,-0.0326,-0.0145
P1Q,Q,1713463,0.9229,0.8995,0.8338,0.0000,0.0882,4.4691,-3.7440,7.6012,0.0139,-0.0183,-0.0131
P1Q,Q,1713483,0.9233,0.8944,0.8382,0.0000,0.0433,4.5499,-3.7536,7.6156,0.0123,-0.0290,-0.0080
P1Q,Q,1713503,0.9233,0.8991,0.8303,0.0000,0.0698,4.5086,-3.7991,7.5557,0.0193,-0.0588,0.0007
P1Q,Q,1713523,0.9226,0.8978,0.8421,0.0000,0.0530,4.4697,-3.7871,7.5299,0.0197,-0.0480,0.0060
P1Q,Q,1713543,0.9233,0.8948,0.8357,0.0000,0.0811,4.5146,-3.7931,7.5287,0.0057,-0.0250,-0.0025
P1Q,Q,1713563,0.9204,0.8931,0.8377,0.0000,0.0232,4.5907,-3.8075,7.5311,0.0049,-0.0129,-0.0072
P1Q,Q,1713583,0.9226,0.8948,0.8303,0.0000,0.0849,4.6356,-3.7907,7.5389,0.0040,-0.0238,-0.0217
P1Q,Q,1713603,0.9255,0.9004,0.8391,0.0000,0.0521,4.5278,-3.7793,7.5623,0.0077,-0.0332,-0.0228
P1Q,Q,1713623,0.9240,0.8991,0.8425,0.0000,0.0991,4.5008,-3.7710,7.5575,-0.0059,-0.0302,-0.0163
P1Q,Q,1713643,0.9237,0.8919,0.8450,0.0000,0.0584,4.4901,-3.7404,7.5820,-0.0071,-0.0348,-0.0061
P1Q,Q,1713663,0.9229,0.8961,0.8367,0.0000,0.0819,4.5230,-3.7201,7.6551,-0.0079,-0.0382,-0.0015
P1Q,Q,1713683,0.9178,0.8919,0.8225,0.0000,0.0622,4.5422,-3.7093,7.6904,0.0075,-0.0437,0.0000
P1Q,Q,1713703,0.9233,0.8872,0.8596,0.0000,0.0748,4.5254,-3.7494,7.6563,0.0280,-0.0340,-0.0052
P1Q,Q,1713723,0.9222,0.8919,0.8572,0.0000,0.0048,4.6116,-3.7434,7.5557,0.0197,-0.0306,-0.0111
P1Q,Q,1713743,0.9240,0.8902,0.8347,0.0000,0.0547,4.5649,-3.7608,7.5497,0.0188,-0.0378,-0.0085
P1Q,Q,1713763,0.9207,0.8970,0.8450,0.0000,0.0245,4.5775,-3.8081,7.5042,0.0116,-0.0464,-0.0072
P1Q,Q,1713783,0.9237,0.8889,0.8357,0.0000,0.1075,4.5577,-3.7722,7.5174,-0.0073,-0.0400,-0.0015
P1Q,Q,1713803,0.9215,0.8944,0.8411,0.0000,0.0480,4.5793,-3.7590,7.5647,0.0057,-0.0410,-0.0029
P1Q,Q,1713823,0.9207,0.8965,0.8372,0.0000,0.1285,4.5613,-3.7746,7.5850,0.0091,-0.0514,-0.0127
P1Q,Q,1713843,0.9237,0.8906,0.8386,0.0000,0.1222,4.4799,-3.7482,7.5802,0.0028,-0.0362,-0.0139
P1Q,Q,1713863,0.9233,0.8931,0.8552,0.0000,0.0798,4.5326,-3.7470,7.6257,0.0057,-0.0322,-0.0116
P1Q,Q,1713883,0.9229,0.8944,0.8299,0.0000,0.0869,4.5469,-3.7542,7.6503,0.0077,-0.0442,-0.0005
P1Q,Q,1713903,0.9211,0.8953,0.8362,0.0000,0.0584,4.4691,-3.7614,7.5689,0.0077,-0.0433,0.0024
P1Q,Q,1713923,0.9244,0.8893,0.8479,0.0000,0.0400,4.5056,-3.7847,7.5665,-0.0001,-0.0312,-0.0041
P1Q,Q,1713943,0.9215,0.8915,0.8372,0.0000,0.0408,4.5434,-3.7751,7.5868,0.0139,-0.0360,-0.0031
P1Q,Q,1713963,0.9222,0.8944,0.8372,0.0000,0.0828,4.4817,-3.8422,7.5287,0.0135,-0.0457,-0.0017
P1Q,Q,1713983,0.9226,0.8948,0.8357,0.0000,0.1046,4.5547,-3.8153,7.5216,0.0039,-0.0409,-0.0020
P1Q,Q,1714003,0.9240,0.8974,0.8264,0.0000,0.0488,4.5829,-3.8075,7.5515,0.0021,-0.0365,-0.0035
P1Q,Q,1714023,0.9229,0.8948,0.8201,0.0000,0.0282,4.5811,-3.7656,7.5683,0.0001,-0.0400,-0.0109
P1Q,Q,1714043,0.9237,0.8906,0.8362,0.0000,0.0815,4.5535,-3.7626,7.5725,0.0021,-0.0348,-0.0103
P1Q,Q,1714063,0.9222,0.8987,0.8372,0.0000,0.0295,4.5972,-3.7428,7.6216,0.0091,-0.0306,-0.0175
P1Q,Q,1714083,0.9226,0.8910,0.8235,0.0000,0.0500,4.5595,-3.7410,7.5713,0.0156,-0.0532,-0.0139
P1Q,Q,1714103,0.9218,0.8906,0.8352,0.0000,0.0505,4.4673,-3.7440,7.5473,0.0100,-0.0521,-0.0057
P1Q,Q,1714123,0.9244,0.8957,0.8264,0.0000,0.0274,4.4673,-3.7428,7.5401,0.0040,-0.0329,-0.0072
P1Q,Q,1714143,0.9222,0.8940,0.8391,0.0000,0.0387,4.4847,-3.6626,7.5701,-0.0003,-0.0240,-0.0141
P1Q,Q,1714163,0.9211,0.8987,0.8382,0.0000,0.0777,4.5739,-3.7177,7.6329,0.0055,-0.0390,-0.0079
P1Q,Q,1714183,0.9222,0.8902,0.8186,0.0000,0.0027,4.4571,-3.7524,7.5958,0.0097,-0.0505,0.0033
P1Q,Q,1714203,0.9237,0.8974,0.8401,0.0000,0.0165,4.5074,-3.7865,7.5269,0.0079,-0.0338,-0.0036
P1Q,Q,1714223,0.9218,0.8953,0.8386,0.0000,0.0576,4.5895,-3.7566,7.5647,-0.0087,-0.0199,-0.0051
P1Q,Q,1714243,0.9218,0.8906,0.8357,0.0000,0.0689,4.6326,-3.8284,7.5581,-0.0001,-0.0410,0.0009
P1Q,Q,1714263,0.9240,0.8902,0.8401,0.0000,0.0308,4.5338,-3.7751,7.5317,-0.0246,-0.0464,-0.0040
P1Q,Q,1714283,0.9251,0.8915,0.8416,0.0000,0.0345,4.5565,-3.7404,7.5725,-0.0116,-0.0417,-0.0124
P1Q,Q,1714303,0.9237,0.8936,0.8386,0.0000,0.0500,4.5044,-3.7536,7.5623,0.0033,-0.0500,-0.0188
P1Q,Q,1714323,0.9266,0.8931,0.8435,0.0000,0.0471,4.5595,-3.7075,7.6120,-0.0111,-0.0517,-0.0183
P1Q,Q,1714343,0.9259,0.8940,0.8421,0.0000,0.0727,4.5296,-3.7219,7.5898,-0.0141,-0.0492,-0.0184
P1Q,Q,1714363,0.9240,0.8944,0.8294,0.0000,0.0157,4.4715,-3.7488,7.6006,-0.0161,-0.0344,-0.0218
P1Q,Q,1714383,0.9233,0.8936,0.8421,0.0000,0.0417,4.5206,-3.6931,7.6042,-0.0191,-0.0298,-0.0209
P1Q,Q,1714403,0.9248,0.8893,0.8762,0.0000,0.0022,4.4961,-3.7105,7.6156,-0.0140,-0.0396,-0.0179
P1Q,Q,1714423,0.9211,0.8995,0.8186,0.0000,0.0366,4.4505,-3.7296,7.6120,-0.0081,-0.0510,-0.0107
P1Q,Q,1714443,0.9229,0.8919,0.8401,0.0000,0.0874,4.4410,-3.6973,7.6174,-0.0108,-0.0489,-0.0019
P1Q,Q,1714463,0.9237,0.8978,0.8289,0.0000,0.0618,4.4643,-3.7278,7.6323,-0.0089,-0.0438,-0.0003
P1Q,Q,1714483,0.9226,0.8978,0.8396,0.0000,0.0467,4.4847,-3.6973,7.6766,-0.0028,-0.0373,-0.0063
P1Q,Q,1714503,0.9222,0.8906,0.8411,0.0000,0.0895,4.5068,-3.6847,7.6425,0.0199,-0.0346,-0.0081
P1Q,Q,1714523,0.9207,0.8902,0.8577,0.0000,0.0584,4.5044,-3.7458,7.6006,0.0369,-0.0462,-0.0028
P1Q,Q,1714543,0.9211,0.8948,0.8308,0.0000,0.0526,4.5254,-3.7506,7.5503,0.0147,-0.0502,-0.0024
P1Q,Q,1714563,0.9281,0.8940,0.8396,0.0000,0.0773,4.5020,-3.6895,7.5928,0.0108,-0.0408,-0.0076
P1Q,Q,1714583,0.9233,0.8906,0.8391,0.0000,0.0291,4.5212,-3.7201,7.5766,0.0240,-0.0412,-0.0093
P1Q,Q,1714603,0.9233,0.8906,0.8435,0.0000,0.0836,4.5074,-3.7464,7.5802,-0.0003,-0.0370,-0.0084
P1Q,Q,1714623,0.9218,0.8910,0.8738,0.0000,0.1029,4.5266,-3.6973,7.6287,-0.0048,-0.0432,-0.0040
P1Q,Q,1714643,0.9240,0.8910,0.8425,0.0000,0.1104,4.4955,-3.7237,7.6772,0.0165,-0.0506,0.0020
P1Q,Q,1714663,0.9138,0.8948,0.8347,0.0000,0.0647,4.4961,-3.7440,7.5994,0.0095,-0.0326,0.0003
P1Q,Q,1714683,0.9229,0.8953,0.8464,0.0000,0.1310,4.5481,-3.7027,7.6036,0.0119,-0.0354,-0.0081
P1Q,Q,1714703,0.9218,0.8804,0.8260,0.0000,0.1318,4.6062,-3.6967,7.6221,0.0333,-0.0512,-0.0060
P1Q,Q,1714723,0.9218,0.8953,0.8489,0.0000,0.0425,4.5338,-3.7368,7.5880,0.0313,-0.0537,-0.0123
P1Q,Q,1714743,0.9215,0.8944,0.8421,0.0000,0.0710,4.5571,-3.7476,7.5850,0.0121,-0.0528,-0.0184
P1Q,Q,1714763,0.9196,0.8923,0.8391,0.0000,0.1213,4.5080,-3.7374,7.5665,-0.0071,-0.0570,-0.0157
P1Q,Q,1714783,0.9237,0.8948,0.8372,0.0000,0.0853,4.4655,-3.7320,7.6365,-0.0089,-0.0432,-0.0057
P1Q,Q,1714803,0.9233,0.8978,0.8406,0.0000,0.0840,4.4883,-3.7296,7.6204,0.0027,-0.0384,-0.0031
P1Q,Q,1714823,0.9255,0.8953,0.8401,0.0000,0.0815,4.4751,-3.7189,7.6317,0.0156,-0.0340,-0.0113
P1Q,Q,1714843,0.9196,0.8893,0.8382,0.0000,0.0123,4.5122,-3.7201,7.6180,0.0218,-0.0320,-0.0160
P1Q,Q,1714863,0.9233,0.8982,0.8421,0.0000,0.1004,4.4823,-3.7464,7.5587,0.0137,-0.0381,-0.0105
P1Q,Q,1714883,0.9193,0.8936,0.8557,0.0000,0.0463,4.4925,-3.7374,7.5778,0.0081,-0.0393,-0.0147
P1Q,Q,1714903,0.9163,0.8948,0.8352,0.0000,0.1117,4.4931,-3.7596,7.5982,0.0047,-0.0329,-0.0087
P1Q,Q,1714923,0.9211,0.8889,0.8742,0.0000,0.1343,4.4966,-3.7428,7.6138,-0.0036,-0.0418,-0.0065
P1Q,Q,1714943,0.9207,0.8987,0.8435,0.0000,0.1004,4.4853,-3.7302,7.6419,0.0039,-0.0460,-0.0077
P1Q,Q,1714963,0.9215,0.8906,0.8469,0.0000,0.0798,4.3859,-3.7039,7.6461,0.0140,-0.0430,-0.0085
P1Q,Q,1714983,0.9237,0.8948,0.8391,0.0000,0.0484,4.4769,-3.7404,7.6048,0.0172,-0.0354,0.0053
P1Q,Q,1715003,0.9218,0.8940,0.8216,0.0000,0.0253,4.5026,-3.7362,7.6287,0.0020,-0.0477,0.0111
P1Q,Q,1715023,0.9233,0.8889,0.8421,0.0000,0.0509,4.5038,-3.7272,7.6395,0.0080,-0.0405,0.0031
P1Q,Q,1715043,0.9248,0.8906,0.8557,0.0000,0.1192,4.5326,-3.7392,7.6126,0.0188,-0.0249,-0.0087
P1Q,Q,1715063,0.9229,0.8936,0.8445,0.0000,0.0475,4.5529,-3.7638,7.5910,0.0140,-0.0458,-0.0116
P1Q,Q,1715083,0.9211,0.8906,0.8303,0.0000,0.0358,4.4787,-3.7817,7.5323,0.0019,-0.0550,-0.0149
P1Q,Q,1715103,0.9215,0.8898,0.8162,0.0000,0.0727,4.5176,-3.7123,7.6036,-0.0012,-0.0418,-0.0236
P1Q,Q,1715123,0.9233,0.8915,0.8440,0.0000,0.0760,4.4613,-3.7877,7.5581,0.0100,-0.0364,-0.0152
P1Q,Q,1715143,0.9196,0.8923,0.8386,0.0000,0.0949,4.4416,-3.7656,7.5940,-0.0109,-0.0408,-0.0017
P1Q,Q,1715163,0.9222,0.8940,0.8206,0.0000,0.0383,4.4320,-3.7632,7.6186,-0.0089,-0.0398,0.0065
P1Q,Q,1715183,0.9240,0.8944,0.8391,0.0000,0.0689,4.5601,-3.7835,7.6012,0.0039,-0.0298,0.0020
P1Q,Q,1715203,0.9189,0.8910,0.8367,0.0000,0.0807,4.6643,-3.7398,7.6221,-0.0120,-0.0340,-0.0048
P1Q,Q,1715223,0.9207,0.8885,0.8421,0.0000,0.1201,4.6601,-3.5452,7.7389,0.0029,-0.0400,-0.0241
P1Q,Q,1715243,0.9211,0.8936,0.8221,0.0000,0.0752,4.5595,-3.4848,7.7563,0.0273,-0.0345,-0.0444
P1Q,Q,1715263,0.9218,0.8898,0.8182,0.0000,0.0169,4.4158,-3.5027,7.7215,0.0246,-0.0079,-0.0657
P1Q,Q,1715283,0.9222,0.9012,0.8221,0.0000,0.0000,4.1745,-3.6877,7.6239,0.0033,-0.0045,-0.0532
P1Q,Q,1715303,0.9211,0.8872,0.8362,0.0000,0.0438,3.9715,-3.8979,7.6132,-0.0265,0.0067,-0.0212
P1Q,Q,1715323,0.9226,0.8919,0.8469,0.0000,0.0350,4.2847,-3.9877,7.6485,-0.0208,0.0380,0.0087
P1Q,Q,1715343,0.9226,0.8957,0.8494,0.0000,0.0400,4.6296,-4.0703,7.6048,0.0405,-0.0001,0.0336
P1Q,Q,1715363,0.9204,0.8957,0.8425,0.0000,0.0266,4.8128,-3.9572,7.4551,0.0751,-0.0658,0.0417
P1Q,Q,1715383,0.9218,0.8940,0.8401,0.0000,0.0354,4.8212,-3.8704,7.1533,0.0749,-0.0544,0.0145
P1Q,Q,1715403,0.9222,0.8915,0.8342,0.0000,0.0752,4.8547,-3.7404,7.1018,0.0177,-0.0141,-0.0453
P1Q,Q,1715423,0.9178,0.8898,0.8445,0.0000,0.0245,4.7721,-3.6734,7.2342,-0.0645,0.0017,-0.0827
P1Q,Q,1715443,0.9233,0.8906,0.8421,0.0000,0.0324,4.5445,-3.5794,7.5581,-0.1392,0.0049,-0.0914
P1Q,Q,1715463,0.9211,0.8906,0.8377,0.0000,0.0371,4.3943,-3.5614,7.8341,-0.1394,-0.0055,-0.0803
P1Q,Q,1715483,0.9196,0.8842,0.8338,0.0000,0.0924,4.3380,-3.5829,7.8509,-0.0906,0.0123,-0.0637
P1Q,Q,1715503,0.9211,0.8898,0.8362,0.0000,0.0207,4.5086,-3.7500,7.6299,-0.0629,0.0356,-0.0590
P1Q,Q,1715523,0.9207,0.8889,0.8372,0.0000,0.0463,4.6254,-3.9189,7.3162,-0.0630,0.0596,-0.0735
P1Q,Q,1715543,0.9196,0.8889,0.8269,0.0000,0.0337,4.7182,-4.0883,6.9833,-0.0485,0.0891,-0.1050
P1Q,Q,1715563,0.9182,0.8910,0.8221,0.0000,0.0488,4.8960,-4.0326,7.0384,-0.1049,0.0845,-0.1231
P1Q,Q,1715583,0.9189,0.8885,0.8342,0.0000,0.0639,4.7960,-3.7165,7.4593,-0.2405,-0.0378,-0.0906
P1Q,Q,1715603,0.9189,0.8915,0.8347,0.0000,0.0000,4.1218,-3.6440,7.7365,-0.2364,-0.0706,-0.0923
P1Q,Q,1715623,0.9204,0.8898,0.8186,0.0000,0.0102,3.8500,-3.7231,7.7754,-0.1845,0.0406,-0.1124
P1Q,Q,1715643,0.9211,0.8868,0.8401,0.0000,0.0429,4.0380,-3.8207,7.7688,-0.1709,0.0870,-0.0965
P1Q,Q,1715663,0.9196,0.8898,0.8386,0.0000,0.0844,4.2973,-3.7781,7.8096,-0.1551,0.0191,-0.0253
P1Q,Q,1715683,0.9167,0.8910,0.8104,0.0000,0.1058,4.3314,-3.7704,7.7030,-0.1314,-0.0364,0.0258
P1Q,Q,1715703,0.9215,0.8965,0.8196,0.0000,0.1046,4.5356,-3.6632,7.6808,-0.1196,-0.0071,0.0252
P1Q,Q,1715723,0.9189,0.8872,0.8338,0.0000,0.1360,4.8691,-3.5141,7.6814,-0.1352,0.0189,0.0087
P1Q,Q,1715743,0.9207,0.8893,0.8352,0.0000,0.0731,5.0882,-3.4249,7.7874,-0.1340,-0.0151,0.0063
P1Q,Q,1715763,0.9226,0.8872,0.8416,0.0000,0.0043,5.2217,-3.2213,7.9832,-0.1210,-0.0725,-0.0008
P1Q,Q,1715783,0.9204,0.8872,0.8303,0.0000,0.0828,5.2523,-3.1219,8.1197,-0.0641,-0.1267,-0.0052
P1Q,Q,1715803,0.9204,0.8885,0.8435,0.0000,0.1062,5.1164,-3.0686,8.1437,-0.0238,-0.1475,-0.0365
P1Q,Q,1715823,0.9178,0.8889,0.8382,0.0000,0.0542,4.7697,-2.9854,8.1820,-0.0228,-0.1035,-0.0838
P1Q,Q,1715843,0.9200,0.8893,0.8552,0.0000,0.0459,4.5966,-2.9483,8.2263,0.0100,-0.0199,-0.1228
P1Q,Q,1715863,0.9196,0.8885,0.8430,0.0000,0.1083,4.5230,-2.9782,8.2011,0.0457,-0.0129,-0.1266
P1Q,Q,1715883,0.9211,0.8876,0.8382,0.0000,0.1071,4.2769,-3.1027,8.1544,0.0855,-0.0520,-0.0925
P1Q,Q,1715903,0.9204,0.8893,0.8352,0.0000,0.0853,4.1069,-3.1459,8.0670,0.1212,-0.0653,-0.0504
P1Q,Q,1715923,0.9204,0.8893,0.8308,0.0000,0.0530,4.0943,-3.2375,7.8263,0.1609,-0.0600,-0.0161
P1Q,Q,1715943,0.9207,0.8940,0.8357,0.0000,0.0454,4.1997,-3.3399,7.6323,0.1511,-0.0601,0.0103
P1Q,Q,1715963,0.9204,0.8889,0.8318,0.0000,0.0526,4.2877,-3.4524,7.4952,0.1390,-0.0709,0.0345
P1Q,Q,1715983,0.9196,0.8885,0.8386,0.0000,0.1067,4.3338,-3.5758,7.4581,0.1123,-0.0705,0.0408
P1Q,Q,1716003,0.9218,0.8893,0.8362,0.0000,0.0542,4.4050,-3.5231,7.4641,0.0689,-0.0669,0.0412
P1Q,Q,1716023,0.9204,0.8876,0.8328,0.0000,0.0161,4.3547,-3.6009,7.5371,0.0456,-0.0625,0.0470
P1Q,Q,1716043,0.9171,0.8885,0.8357,0.0000,0.1025,4.3350,-3.6889,7.5641,0.0266,-0.0445,0.0465
P1Q,Q,1716063,0.9196,0.8881,0.8567,0.0000,0.1184,4.3889,-3.6650,7.6186,0.0320,-0.0289,0.0428
P1Q,Q,1716083,0.9215,0.8906,0.8372,0.0000,0.0299,4.3805,-3.6710,7.5263,0.0582,-0.0165,0.0346
P1Q,Q,1716103,0.9244,0.8919,0.8518,0.0000,0.1025,4.3266,-3.7590,7.3767,0.0353,-0.0037,0.0354
P1Q,Q,1716123,0.9174,0.8881,0.8352,0.0000,0.0786,4.3637,-3.7877,7.3844,-0.0230,0.0063,0.0357
P1Q,Q,1716143,0.9189,0.8876,0.8396,0.0000,0.1020,4.4074,-3.7602,7.4288,-0.0538,0.0087,0.0388
P1Q,Q,1716163,0.9196,0.8889,0.8328,0.0000,0.0303,4.4661,-3.6955,7.5742,-0.0596,0.0048,0.0390
P1Q,Q,1716183,0.9196,0.8787,0.8352,0.0000,0.0928,4.6278,-3.6243,7.6587,-0.0646,-0.0112,0.0480
P1Q,Q,1716203,0.9211,0.8957,0.8299,0.0000,0.0999,4.6853,-3.6051,7.7215,-0.0465,-0.0191,0.0440
P1Q,Q,1716223,0.9215,0.8885,0.8372,0.0000,0.0844,4.8050,-3.5578,7.7880,-0.0360,-0.0011,0.0300
P1Q,Q,1716243,0.9182,0.8881,0.8372,0.0000,0.0291,4.9523,-3.4788,7.8293,-0.0195,0.0072,0.0145
P1Q,Q,1716263,0.9211,0.8893,0.8421,0.0000,0.0895,4.9164,-3.4548,7.8551,-0.0091,-0.0152,-0.0025
P1Q,Q,1716283,0.9226,0.8872,0.8479,0.0000,0.0199,4.8194,-3.3919,7.8413,0.0084,-0.0177,-0.0149
P1Q,Q,1716303,0.9204,0.8936,0.8425,0.0000,0.0505,4.7511,-3.3638,7.7928,0.0305,-0.0033,-0.0265
P1Q,Q,1716323,0.9211,0.8881,0.8352,0.0000,0.0190,4.7493,-3.3991,7.7317,0.0369,-0.0043,-0.0278
P1Q,Q,1716343,0.9200,0.8872,0.8318,0.0000,0.0823,4.7332,-3.4644,7.7018,0.0381,-0.0306,-0.0192
