person_id,label,timestamp,flex1,flex2,flex3,flex4,flex5,ax,ay,az,gx,gy,gz
P1R,R,1794683,0.9896,0.9944,0.9948,0.9920,0.9545,-1.1089,-9.2232,-3.4075,0.0199,-0.0145,0.0004
P1R,R,1794703,0.9901,0.9944,1.0000,1.0000,0.9621,-1.0550,-9.2502,-3.3937,0.0099,-0.0242,-0.0115
P1R,R,1794723,0.9930,0.9930,0.9829,0.9819,0.9742,-1.1993,-9.2520,-3.3626,0.0132,-0.0380,-0.0313
P1R,R,1794743,0.9910,0.9930,0.9888,1.0000,0.9294,-1.2915,-9.2735,-3.3351,0.0079,-0.0221,-0.0117
P1R,R,1794763,0.9901,0.9930,0.9905,0.9854,0.9787,-1.2227,-9.2298,-3.2854,0.0116,-0.0281,-0.0053
P1R,R,1794783,0.9944,0.9930,0.9986,1.0000,0.9509,-1.3520,-9.2927,-3.3303,0.0167,-0.0422,-0.0135
P1R,R,1794803,0.9915,0.9935,0.9953,0.9920,0.9406,-1.2616,-9.2244,-3.3363,0.0196,-0.0172,0.0060
P1R,R,1794823,0.9925,0.9925,0.9915,1.0000,0.9325,-1.1059,-9.2705,-3.4021,0.0129,-0.0317,0.0053
P1R,R,1794843,0.9925,0.9925,0.9877,1.0000,1.0000,-1.1891,-9.1801,-3.3411,0.0033,-0.0622,-0.0155
P1R,R,1794863,0.9881,1.0000,0.9791,0.9994,0.9832,-1.2101,-9.2262,-3.3740,0.0112,-0.0569,-0.0240
P1R,R,1794883,0.9905,0.9925,0.9932,0.9815,0.9823,-1.1837,-9.2316,-3.4117,0.0159,-0.0428,-0.0144
P1R,R,1794903,0.9848,0.9940,0.9932,1.0000,1.0000,-1.1580,-9.2514,-3.4087,0.0125,-0.0328,-0.0057
P1R,R,1794923,0.9925,0.9890,0.9981,1.0000,0.9482,-1.2526,-9.1933,-3.4033,0.0052,-0.0289,-0.0096
P1R,R,1794943,0.9867,0.9895,0.9861,1.0000,1.0000,-1.2131,-9.1885,-3.3896,0.0141,-0.0187,-0.0053
P1R,R,1794963,0.9944,0.9930,0.9785,1.0000,1.0000,-1.1580,-9.2753,-3.4033,0.0065,-0.0232,-0.0115
P1R,R,1794983,0.9968,0.9925,0.9964,0.9893,0.9200,-1.2801,-9.2071,-3.3722,-0.0063,-0.0428,-0.0221
P1R,R,1795003,0.9920,0.9915,0.9948,0.9982,0.9531,-1.3131,-9.2304,-3.3638,-0.0012,-0.0100,0.0087
P1R,R,1795023,0.9915,0.9920,1.0000,1.0000,0.9518,-1.1095,-9.2358,-3.3464,0.0056,-0.0301,-0.0008
P1R,R,1795043,0.9886,0.9935,0.9715,0.9905,1.0000,-1.1951,-9.2921,-3.3171,-0.0036,-0.0557,-0.0304
P1R,R,1795063,0.9925,0.9910,0.9905,0.9889,1.0000,-1.3694,-9.2687,-3.3105,-0.0107,-0.0406,-0.0115
P1R,R,1795083,0.9915,0.9925,0.9910,0.9866,0.9253,-1.2280,-9.1987,-3.2279,0.0025,-0.0161,0.0075
P1R,R,1795103,0.9905,0.9885,0.9785,0.9691,0.9464,-1.2065,-9.3184,-3.2518,0.0200,-0.0356,-0.0008
P1R,R,1795123,0.9949,0.9915,0.9753,0.9858,0.9684,-1.2927,-9.2885,-3.3417,0.0176,-0.0421,-0.0085
P1R,R,1795143,0.9891,0.9915,0.9948,0.9912,0.9666,-1.2209,-9.2466,-3.3303,0.0129,-0.0185,0.0039
P1R,R,1795163,0.9934,0.9930,0.9964,0.9916,0.9442,-1.1502,-9.2813,-3.3015,0.0168,-0.0374,-0.0040
P1R,R,1795183,0.9915,0.9940,0.9796,0.9928,0.9177,-1.2215,-9.2717,-3.3333,0.0168,-0.0625,-0.0245
P1R,R,1795203,0.9867,0.9885,0.9981,0.9924,0.9370,-1.3717,-9.2124,-3.4147,0.0177,-0.0438,-0.0001
P1R,R,1795223,0.9901,0.9856,0.9574,0.9994,0.9366,-1.1646,-9.2059,-3.3734,0.0191,-0.0163,0.0270
P1R,R,1795243,0.9925,0.9910,0.9807,1.0000,0.9307,-1.0808,-9.2514,-3.4183,0.0072,-0.0497,-0.0035
P1R,R,1795263,0.9891,0.9930,0.9812,0.9924,0.9540,-1.2496,-9.1729,-3.3602,0.0056,-0.0492,-0.0224
P1R,R,1795283,0.9930,0.9910,0.9943,0.9994,0.9778,-1.2442,-9.2597,-3.3219,0.0068,-0.0164,0.0023
P1R,R,1795303,0.9944,0.9940,0.9943,0.9862,0.9644,-1.1173,-9.2490,-3.2866,0.0107,-0.0052,0.0088
P1R,R,1795323,0.9795,1.0000,0.9905,0.9940,0.9514,-1.2191,-9.2759,-3.2961,0.0217,-0.0284,-0.0107
P1R,R,1795343,0.9920,0.9910,0.9964,0.9943,0.9482,-1.3083,-9.2484,-3.3417,0.0258,-0.0384,-0.0228
P1R,R,1795363,0.9877,0.9915,0.9964,1.0000,0.9312,-1.3131,-9.2585,-3.3512,0.0260,-0.0372,-0.0067
P1R,R,1851603,0.7119,0.3300,0.1569,0.0000,0.7437,-0.8077,-8.9969,-4.2206,-0.0763,-0.0353,-0.0253
P1R,R,1851623,0.7114,0.3315,0.1807,0.0000,0.7428,-0.9095,-9.1238,-4.0566,-0.0969,-0.0241,-0.0437
P1R,R,1851643,0.7119,0.3325,0.1433,0.0000,0.7361,-1.0131,-9.1747,-3.8817,-0.0935,-0.0176,-0.0457
P1R,R,1851663,0.7105,0.3330,0.1601,0.0000,0.8374,-1.1328,-9.1693,-3.8195,-0.0769,-0.0264,-0.0488
P1R,R,1851683,0.7109,0.3330,0.1677,0.0000,0.7410,-1.2538,-9.0951,-3.7554,-0.0317,-0.0229,-0.0290
P1R,R,1851703,0.7162,0.3334,0.1623,0.0000,0.7388,-1.1801,-9.0280,-3.8254,0.0268,-0.0252,-0.0087
P1R,R,1851723,0.7105,0.3354,0.1585,0.0000,0.8226,-1.2891,-9.0777,-3.9679,0.0665,-0.0373,0.0067
P1R,R,1851743,0.7129,0.3334,0.1607,0.0000,0.7298,-1.2053,-8.9933,-4.1134,0.0524,-0.0492,0.0023
P1R,R,1851763,0.7105,0.3364,0.1590,0.0000,0.7585,-1.1969,-8.9226,-4.1781,0.0344,-0.0681,-0.0171
P1R,R,1851783,0.7105,0.3290,0.1585,0.0000,0.8101,-1.2730,-8.8891,-4.2326,-0.0019,-0.0743,-0.0209
P1R,R,1851803,0.7124,0.3300,0.1460,0.0000,0.7352,-1.2730,-9.0646,-4.3003,0.0007,-0.0460,-0.0104
P1R,R,1851823,0.7167,0.3315,0.1650,0.0000,0.8271,-1.1778,-8.9664,-4.2146,-0.0132,-0.0496,-0.0007
P1R,R,1851843,0.7105,0.3325,0.1807,0.0000,0.8191,-1.1029,-8.8676,-4.1003,0.0099,-0.0637,0.0220
P1R,R,1851863,0.7129,0.3374,0.1628,0.0000,0.7621,-0.9412,-8.9226,-4.1488,0.0108,-0.0557,0.0342
P1R,R,1851883,0.7143,0.3305,0.1623,0.0000,0.8244,-0.8119,-8.8053,-4.0260,0.0155,-0.0480,0.0177
P1R,R,1851903,0.7119,0.3305,0.1650,0.0000,0.8025,-0.9107,-9.0675,-4.0685,0.0293,-0.0332,-0.0087
P1R,R,1851923,0.7124,0.3325,0.1634,0.0000,0.7769,-1.0125,-9.1556,-4.0787,-0.0128,-0.0228,-0.0394
P1R,R,1851943,0.7124,0.3339,0.1628,0.0000,0.7886,-1.1682,-9.0891,-3.9656,-0.0370,-0.0021,-0.0441
P1R,R,1851963,0.7143,0.3325,0.1965,0.0000,0.8101,-1.2592,-9.0352,-3.9099,-0.0524,-0.0108,-0.0256
P1R,R,1851983,0.7148,0.3310,0.1655,0.0000,0.8482,-1.3023,-8.9634,-3.8177,-0.0220,-0.0296,-0.0151
P1R,R,1852003,0.7167,0.3349,0.1601,0.0000,0.8235,-1.2388,-9.1274,-3.9183,0.0224,-0.0354,-0.0009
P1R,R,1852023,0.7133,0.3315,0.1612,0.0000,0.8020,-1.1340,-9.0472,-4.0200,0.0228,-0.0534,-0.0031
P1R,R,1852043,0.7119,0.3339,0.1579,0.0000,0.8558,-1.2101,-8.9053,-4.1320,0.0127,-0.0581,-0.0056
P1R,R,1852063,0.7129,0.3334,0.1607,0.0000,0.8240,-1.1604,-8.8388,-4.2009,0.0069,-0.0249,0.0079
P1R,R,1852083,0.7124,0.3315,0.1829,0.0000,0.8365,-1.1352,-8.7945,-4.2051,0.0041,-0.0388,-0.0039
P1R,R,1852103,0.7109,0.3300,0.1677,0.0000,0.7361,-1.1658,-8.8807,-4.2512,0.0001,-0.0232,-0.0064
P1R,R,1852123,0.7129,0.3315,0.1541,0.0000,0.8433,-1.0490,-9.0053,-4.2140,-0.0065,-0.0200,-0.0076
P1R,R,1852143,0.7119,0.3339,0.1569,0.0000,0.8105,-1.1257,-8.9957,-4.1799,-0.0316,-0.0640,-0.0238
P1R,R,1852163,0.7114,0.3310,0.1590,0.0000,0.8182,-1.1508,-8.9466,-4.0721,-0.0245,-0.0517,-0.0161
P1R,R,1852183,0.7109,0.3315,0.1487,0.0000,0.7872,-1.1927,-9.0005,-4.0530,-0.0065,-0.0280,0.0033
P1R,R,1852203,0.7129,0.3334,0.1623,0.0000,0.8262,-1.1257,-9.0167,-4.0051,0.0021,-0.0189,-0.0059
P1R,R,1852223,0.7119,0.3300,0.1655,0.0000,0.8760,-1.1376,-9.0526,-3.9925,0.0144,-0.0238,-0.0124
P1R,R,1852243,0.7133,0.3320,0.1574,0.0000,0.7433,-1.1616,-9.1113,-3.9685,0.0298,-0.0277,-0.0116
P1R,R,1852263,0.7095,0.3320,0.1444,0.0000,0.7809,-1.1622,-9.0687,-3.9739,0.0218,-0.0560,-0.0225
P1R,R,1852283,0.7114,0.3300,0.1411,0.0000,0.7491,-1.2107,-8.9873,-3.9464,0.0187,-0.0589,-0.0204
P1R,R,1852303,0.7157,0.3325,0.1417,0.0000,0.8509,-1.2203,-9.0795,-3.9853,0.0480,-0.0526,-0.0013
P1R,R,1852323,0.7148,0.3359,0.1395,0.0000,0.7231,-1.1107,-9.0873,-4.0961,0.0382,-0.0621,0.0132
P1R,R,1852343,0.7124,0.3344,0.1748,0.0000,0.7401,-1.0311,-8.9568,-4.0895,0.0171,-0.0652,0.0075
P1R,R,1852363,0.7119,0.3315,0.1503,0.0000,0.7657,-1.0909,-8.9993,-4.1494,0.0228,-0.0674,0.0012
P1R,R,1852383,0.7119,0.3334,0.1693,0.0000,0.7401,-1.1089,-8.9358,-4.1488,0.0035,-0.0402,0.0089
P1R,R,1852403,0.7119,0.3295,0.1579,0.0000,0.7343,-0.9820,-8.9741,-4.1206,-0.0001,-0.0342,0.0091
P1R,R,1852423,0.7119,0.3315,0.1607,0.0000,0.8451,-0.9658,-9.0214,-4.1081,-0.0148,-0.0653,-0.0189
P1R,R,1852443,0.7119,0.3305,0.1585,0.0000,0.7518,-1.0682,-9.0220,-4.0536,-0.0117,-0.0661,-0.0277
P1R,R,1852463,0.7143,0.3344,0.1411,0.0000,0.7276,-1.0646,-9.0705,-4.0380,-0.0047,-0.0342,-0.0095
P1R,R,1852483,0.7138,0.3334,0.1596,0.0000,0.7253,-1.0275,-9.0214,-4.0218,-0.0099,-0.0268,0.0048
P1R,R,1852503,0.7157,0.3349,0.1623,0.0000,0.7285,-1.0305,-9.0244,-4.0015,-0.0033,-0.0321,-0.0100
P1R,R,1852523,0.7114,0.3330,0.1645,0.0000,0.7222,-1.1460,-9.0256,-3.9685,0.0064,-0.0354,-0.0181
P1R,R,1852543,0.7114,0.3339,0.1628,0.0000,0.7437,-1.1478,-9.0544,-4.0123,0.0007,-0.0115,-0.0019
P1R,R,1852563,0.7148,0.3315,0.1661,0.0000,0.6975,-1.1161,-8.9825,-4.0015,0.0007,-0.0209,0.0001
P1R,R,1852583,0.7114,0.3315,0.1628,0.0000,0.7065,-1.0987,-9.0801,-4.0296,0.0101,-0.0354,-0.0077
P1R,R,1852603,0.7167,0.3250,0.1438,0.0000,0.7244,-1.1658,-9.0484,-4.0661,0.0007,-0.0444,-0.0129
P1R,R,1852623,0.7181,0.3344,0.1780,0.0000,0.7886,-1.1807,-8.9981,-4.0500,0.0075,-0.0252,0.0020
P1R,R,1852643,0.7162,0.3334,0.1531,0.0000,0.7195,-1.0873,-9.0328,-4.0278,0.0083,-0.0229,0.0133
P1R,R,1852663,0.7129,0.3344,0.1639,0.0000,0.7249,-1.1113,-8.9370,-3.9446,0.0016,-0.0372,0.0005
P1R,R,1852683,0.7205,0.3325,0.1547,0.0000,0.7226,-1.1023,-9.0113,-3.9781,0.0237,-0.0340,-0.0039
P1R,R,1852703,0.7143,0.3325,0.1552,0.0000,0.7881,-1.1430,-9.0430,-4.0428,0.0161,-0.0364,-0.0107
P1R,R,1852723,0.7143,0.3339,0.1601,0.0000,0.7863,-1.2370,-8.9957,-4.0105,0.0199,-0.0344,-0.0095
P1R,R,1852743,0.7186,0.3325,0.1487,0.0000,0.8101,-1.1604,-9.0604,-4.1069,0.0084,-0.0222,-0.0065
P1R,R,1852763,0.7129,0.3330,0.1579,0.0000,0.8576,-1.1724,-8.8963,-4.1152,-0.0025,-0.0458,-0.0075
P1R,R,1852783,0.7196,0.3339,0.1661,0.0000,0.7155,-1.1760,-8.9508,-4.1254,-0.0005,-0.0309,0.0040
P1R,R,1852803,0.7172,0.3325,0.1617,0.0000,0.7688,-1.0981,-8.9155,-4.0230,0.0149,-0.0429,0.0093
P1R,R,1852823,0.7042,0.3374,0.1590,0.0000,0.7904,-1.0119,-9.0550,-4.0141,0.0160,-0.0422,-0.0065
P1R,R,1852843,0.7157,0.3330,0.1639,0.0000,0.7222,-1.0825,-9.0915,-4.0033,0.0161,-0.0568,-0.0205
P1R,R,1852863,0.7167,0.3295,0.1840,0.0000,0.7612,-1.1376,-9.0640,-4.0422,0.0024,-0.0365,-0.0104
P1R,R,1852883,0.7143,0.3315,0.1438,0.0000,0.7056,-1.1370,-8.9113,-4.0500,-0.0069,-0.0140,0.0072
P1R,R,1852903,0.7186,0.3320,0.1607,0.0000,0.7585,-1.0927,-9.0035,-4.0991,-0.0051,-0.0175,0.0027
P1R,R,1852923,0.7133,0.3339,0.1438,0.0000,0.7608,-1.1125,-8.8364,-4.0386,-0.0225,-0.0336,-0.0115
P1R,R,1852943,0.7181,0.3344,0.1628,0.0000,0.7016,-1.1107,-9.0011,-3.9584,0.0181,-0.0293,-0.0141
P1R,R,1852963,0.7138,0.3334,0.1894,0.0000,0.7370,-1.0987,-9.1220,-4.0374,0.0218,-0.0213,-0.0169
P1R,R,1852983,0.7153,0.3349,0.1623,0.0000,0.7868,-1.2077,-9.0089,-4.0170,0.0097,-0.0372,-0.0121
P1R,R,1853003,0.7143,0.3315,0.1607,0.0000,0.7984,-1.1640,-9.0406,-4.0027,0.0095,-0.0304,-0.0015
P1R,R,1853023,0.7157,0.3320,0.1585,0.0000,0.7989,-1.1819,-8.9915,-4.0164,0.0159,-0.0297,0.0023
P1R,R,1853043,0.7162,0.3330,0.1612,0.0000,0.8087,-1.0993,-9.0777,-3.9853,0.0161,-0.0165,0.0113
P1R,R,1853063,0.7172,0.3315,0.1574,0.0000,0.7917,-1.0281,-9.0478,-4.0039,-0.0009,-0.0293,-0.0013
P1R,R,1853083,0.7167,0.3305,0.1579,0.0000,0.7554,-1.1861,-8.9670,-3.9799,-0.0025,-0.0358,-0.0129
P1R,R,1853103,0.7177,0.3315,0.1645,0.0000,0.8177,-1.1442,-8.9843,-3.9793,0.0123,-0.0153,0.0004
P1R,R,1853123,0.7157,0.3339,0.1623,0.0000,0.8132,-1.1412,-9.0675,-4.0141,0.0128,-0.0204,0.0017
P1R,R,1853143,0.7148,0.3241,0.1628,0.0000,0.8038,-1.0065,-9.0705,-4.0290,0.0049,-0.0229,-0.0047
P1R,R,1853163,0.7153,0.3330,0.1666,0.0000,0.8200,-1.1077,-9.0675,-4.0392,-0.0183,-0.0452,-0.0199
P1R,R,1853183,0.7148,0.3320,0.1411,0.0000,0.7294,-1.1783,-8.9310,-3.9284,-0.0081,-0.0432,-0.0195
P1R,R,1853203,0.7133,0.3330,0.1921,0.0000,0.7944,-1.1760,-9.0454,-4.0224,0.0131,-0.0261,-0.0083
P1R,R,1853223,0.7167,0.3320,0.1558,0.0000,0.7957,-1.1604,-9.0256,-4.0194,0.0079,-0.0145,0.0044
P1R,R,1853243,0.7157,0.3344,0.1541,0.0000,0.7832,-1.0957,-9.0783,-3.9733,0.0071,-0.0172,0.0049
P1R,R,1853263,0.7258,0.3330,0.1834,0.0000,0.7993,-1.1077,-9.0167,-3.9290,0.0027,-0.0465,-0.0157
P1R,R,1853283,0.7167,0.3295,0.1498,0.0000,0.8141,-1.2316,-9.1047,-3.9997,0.0189,-0.0580,-0.0181
P1R,R,1853303,0.7186,0.3320,0.1693,0.0000,0.8056,-1.1993,-8.9933,-4.0344,0.0043,-0.0302,0.0011
P1R,R,1853323,0.7167,0.3315,0.1509,0.0000,0.8303,-1.1358,-8.9867,-4.0542,-0.0009,-0.0217,0.0123
P1R,R,1853343,0.7177,0.3330,0.1607,0.0000,0.7917,-1.0921,-9.0178,-4.0380,-0.0067,-0.0477,0.0005
P1R,R,1853363,0.7191,0.3315,0.1601,0.0000,0.7805,-1.1807,-8.9837,-3.9919,-0.0013,-0.0524,-0.0169
P1R,R,1853383,0.7162,0.3315,0.1666,0.0000,0.7643,-1.1400,-9.0945,-4.0542,0.0061,-0.0440,-0.0068
P1R,R,1853403,0.7196,0.3315,0.1655,0.0000,0.8361,-1.0849,-8.9987,-4.0320,-0.0201,-0.0408,-0.0024
P1R,R,1853423,0.7157,0.3320,0.1509,0.0000,0.7899,-1.0897,-8.9460,-3.9739,0.0109,-0.0320,-0.0029
P1R,R,1853443,0.7201,0.3315,0.1856,0.0000,0.8504,-1.0909,-9.0807,-4.0236,0.0113,-0.0344,-0.0089
P1R,R,1853463,0.7172,0.3320,0.1699,0.0000,0.7258,-1.0879,-9.0298,-4.0003,-0.0061,-0.0466,-0.0193
P1R,R,1853483,0.7191,0.3315,0.1569,0.0000,0.7159,-1.1568,-9.0628,-4.0135,-0.0031,-0.0337,-0.0068
P1R,R,1853503,0.7143,0.3320,0.1634,0.0000,0.8016,-1.1496,-9.0256,-4.0164,-0.0151,-0.0141,-0.0032
P1R,R,1853523,0.7172,0.3334,0.1319,0.0000,0.7267,-1.1987,-8.9891,-4.0093,-0.0167,-0.0004,0.0035
P1R,R,1853543,0.7196,0.3359,0.1650,0.0000,0.7675,-1.0442,-9.0412,-4.0021,-0.0131,-0.0133,-0.0117
P1R,R,1853563,0.7210,0.3330,0.1666,0.0000,0.7666,-1.1628,-8.9107,-3.9907,-0.0071,-0.0580,-0.0224
P1R,R,1853583,0.7186,0.3310,0.1623,0.0000,0.7334,-1.2161,-9.0616,-3.9296,0.0203,-0.0092,0.0104
P1R,R,1853603,0.7205,0.3315,0.1628,0.0000,0.7639,-1.0305,-9.1633,-3.9458,0.0051,0.0129,0.0233
P1R,R,1853623,0.7181,0.3320,0.1666,0.0000,0.7666,-0.9879,-9.1574,-3.9871,-0.0200,-0.0153,-0.0111
P1R,R,1853643,0.7162,0.3315,0.1601,0.0000,0.7545,-1.1382,-8.9574,-3.9338,-0.0212,-0.0360,-0.0314
P1R,R,1853663,0.7181,0.3270,0.1574,0.0000,0.7137,-1.2011,-8.9268,-3.8889,0.0051,-0.0337,-0.0258
P1R,R,1853683,0.7215,0.3330,0.1487,0.0000,0.7374,-1.2801,-9.1256,-3.9614,0.0161,-0.0336,-0.0156
P1R,R,1853703,0.7191,0.3354,0.1607,0.0000,0.7477,-1.2454,-9.0628,-3.9817,0.0057,-0.0215,-0.0045
P1R,R,1853723,0.7234,0.3300,0.1710,0.0000,0.7105,-1.1574,-9.0657,-3.9727,0.0007,-0.0296,-0.0027
P1R,R,1853743,0.7162,0.3384,0.1661,0.0000,0.7634,-1.2185,-9.0143,-3.9129,-0.0040,-0.0510,-0.0103
P1R,R,1853763,0.7229,0.3325,0.1677,0.0000,0.7509,-1.1819,-9.0436,-3.9979,0.0016,-0.0422,-0.0045
P1R,R,1853783,0.7196,0.3315,0.1623,0.0000,0.7558,-1.1119,-9.0436,-3.9913,-0.0071,-0.0416,-0.0064
P1R,R,1853803,0.7205,0.3310,0.1862,0.0000,0.7567,-1.1448,-9.0035,-3.9093,0.0000,-0.0225,-0.0021
P1R,R,1853823,0.7191,0.3315,0.1590,0.0000,0.7320,-1.1005,-9.0412,-3.8961,0.0017,-0.0374,-0.0035
P1R,R,1853843,0.7205,0.3320,0.1520,0.0000,0.7643,-1.0885,-9.1160,-3.9021,0.0049,-0.0441,-0.0187
P1R,R,1853863,0.7186,0.3295,0.1601,0.0000,0.7747,-1.1748,-9.0993,-3.8949,0.0137,-0.0422,-0.0167
P1R,R,1853883,0.7210,0.3250,0.1574,0.0000,0.8011,-1.2029,-9.0496,-3.9404,0.0112,-0.0340,-0.0081
P1R,R,1853903,0.7215,0.3325,0.1552,0.0000,0.7172,-1.2316,-9.0161,-3.9656,0.0041,-0.0225,-0.0001
P1R,R,1853923,0.7124,0.3349,0.1634,0.0000,0.7303,-1.2083,-8.9957,-3.9602,0.0093,-0.0310,-0.0016
P1R,R,1853943,0.7167,0.3334,0.1590,0.0000,0.7540,-1.1831,-9.0083,-3.9560,-0.0023,-0.0466,-0.0120
P1R,R,1853963,0.7157,0.3285,0.1775,0.0000,0.7670,-1.2286,-9.0687,-3.9308,0.0081,-0.0362,-0.0029
P1R,R,1853983,0.7239,0.3325,0.1645,0.0000,0.8177,-1.1209,-9.0568,-3.9183,-0.0048,-0.0352,0.0027
P1R,R,1854003,0.7177,0.3320,0.1579,0.0000,0.7477,-1.1047,-9.0131,-3.9434,0.0136,-0.0482,-0.0100
P1R,R,1854023,0.7210,0.3305,0.1672,0.0000,0.7482,-1.1245,-9.0574,-3.9476,0.0108,-0.0493,-0.0075
P1R,R,1854043,0.7172,0.3330,0.1596,0.0000,0.8065,-1.1454,-9.0101,-3.9853,0.0028,-0.0490,-0.0067
P1R,R,1854063,0.7196,0.3315,0.1807,0.0000,0.7105,-1.0855,-8.9711,-3.9781,0.0161,-0.0242,-0.0036
P1R,R,1854083,0.7196,0.3325,0.1650,0.0000,0.7437,-1.1179,-9.0532,-4.0811,0.0063,-0.0278,-0.0024
P1R,R,1854103,0.7210,0.3320,0.1612,0.0000,0.8011,-1.1161,-8.9939,-3.9979,0.0057,-0.0180,-0.0079
P1R,R,1854123,0.7215,0.3344,0.1639,0.0000,0.8374,-1.1065,-9.0346,-3.9518,0.0285,-0.0272,-0.0204
P1R,R,1854143,0.7239,0.3310,0.1650,0.0000,0.8047,-1.1143,-9.0897,-3.8434,0.0428,-0.0430,-0.0270
P1R,R,1854163,0.7186,0.3280,0.1688,0.0000,0.8119,-1.2514,-8.9771,-3.8236,0.0616,-0.0209,-0.0095
P1R,R,1854183,0.7138,0.3325,0.1612,0.0000,0.7451,-1.1586,-9.0849,-3.8913,0.0991,-0.0065,0.0048
P1R,R,1854203,0.7162,0.3344,0.1612,0.0000,0.8348,-1.1149,-9.2675,-4.0745,0.0594,-0.0517,-0.0338
P1R,R,1854223,0.7191,0.3349,0.1617,0.0000,0.8321,-1.3388,-9.0622,-4.0153,-0.0273,-0.1037,-0.0713
P1R,R,1854243,0.7191,0.3339,0.1601,0.0000,0.8137,-1.3622,-8.9406,-3.8775,-0.0137,-0.0742,-0.0376
P1R,R,1854263,0.7201,0.3260,0.1612,0.0000,0.7984,-1.2867,-8.9484,-3.7476,0.0332,-0.0568,-0.0089
P1R,R,1854283,0.7201,0.3349,0.1693,0.0000,0.7513,-1.1083,-9.1735,-3.8284,0.0637,-0.0388,0.0041
P1R,R,1854303,0.7191,0.3325,0.1661,0.0000,0.8092,-0.9987,-9.2053,-3.9829,0.0345,-0.0600,-0.0167
P1R,R,1854323,0.7210,0.3305,0.1639,0.0000,0.8343,-1.1095,-9.0454,-4.0206,0.0137,-0.0887,-0.0449
P1R,R,1854343,0.7205,0.3330,0.1574,0.0000,0.8298,-1.3071,-8.8304,-4.0697,0.0159,-0.0713,-0.0377
P1R,R,1854363,0.7225,0.3349,0.1699,0.0000,0.7957,-1.3298,-8.8292,-4.0859,0.0489,-0.0353,-0.0095
P1R,R,1854383,0.7220,0.3334,0.1872,0.0000,0.8271,-1.2460,-8.9352,-4.2176,0.0225,-0.0188,0.0056
P1R,R,1854403,0.7263,0.3285,0.1503,0.0000,0.8029,-1.3053,-8.9562,-4.1584,-0.0285,-0.0606,-0.0224
P1R,R,1854423,0.7234,0.3310,0.1634,0.0000,0.7706,-1.4969,-8.8436,-4.0404,-0.0536,-0.0717,-0.0322
P1R,R,1854443,0.7268,0.3315,0.1699,0.0000,0.7585,-1.4795,-8.9280,-3.9733,-0.0530,-0.0410,-0.0079
P1R,R,1854463,0.7239,0.3315,0.1634,0.0000,0.8348,-1.3849,-9.0310,-3.9224,-0.0659,-0.0099,0.0265
P1R,R,1854483,0.7234,0.3310,0.1623,0.0000,0.8011,-1.2340,-9.0358,-3.8674,-0.0726,0.0153,0.0438
P1R,R,1854503,0.7225,0.3325,0.1645,0.0000,0.8307,-1.1813,-8.9873,-3.9153,-0.0592,0.0648,0.0702
P1R,R,1854523,0.7234,0.3310,0.1655,0.0000,0.7374,-0.7862,-8.9149,-3.9937,-0.0629,0.1266,0.0919
P1R,R,1854543,0.7229,0.3290,0.1498,0.0000,0.8137,-0.4628,-8.9610,-4.0452,-0.0626,0.0829,0.0111
P1R,R,1854563,0.7181,0.3305,0.1683,0.0000,0.7249,-0.7892,-9.0005,-3.9518,-0.0879,0.0436,-0.0917
P1R,R,1854583,0.7244,0.3310,0.1661,0.0000,0.8034,-1.3071,-9.0556,-3.8135,-0.1112,0.0449,-0.1179
P1R,R,1854603,0.7215,0.3315,0.1699,0.0000,0.7428,-1.5526,-9.1532,-3.6578,-0.1051,0.0410,-0.1063
P1R,R,1854623,0.7220,0.3320,0.1927,0.0000,0.7468,-1.6993,-9.2795,-3.5117,-0.0725,0.0188,-0.0791
P1R,R,1854643,0.7234,0.3339,0.1693,0.0000,0.7347,-1.8298,-9.3280,-3.3524,-0.0302,-0.0401,-0.0552
P1R,R,1854663,0.7253,0.3300,0.1699,0.0000,0.7720,-1.8549,-9.3885,-3.3249,0.0060,-0.0806,-0.0107
P1R,R,1854683,0.7220,0.3325,0.1677,0.0000,0.8132,-1.6819,-9.2921,-3.2860,0.0470,-0.0737,0.0524
P1R,R,1854703,0.7229,0.3295,0.1753,0.0000,0.8056,-1.2873,-9.2975,-3.4860,0.0823,-0.0994,0.0710
P1R,R,1854723,0.7234,0.3320,0.1639,0.0000,0.7294,-1.1478,-9.1358,-3.6662,0.0918,-0.1232,0.0594
P1R,R,1854743,0.7229,0.3305,0.1655,0.0000,0.8374,-0.9802,-9.0364,-3.8308,0.1049,-0.1164,0.0469
P1R,R,1854763,0.7239,0.3339,0.1623,0.0000,0.8105,-0.9281,-8.9113,-4.0021,0.0773,-0.1183,0.0188
P1R,R,1854783,0.7225,0.3300,0.1650,0.0000,0.7917,-1.0095,-8.8448,-4.1548,0.0612,-0.0967,0.0144
P1R,R,1854803,0.7239,0.3320,0.1514,0.0000,0.7509,-0.8239,-8.9364,-4.1793,0.0188,-0.0727,-0.0064
P1R,R,1854823,0.7253,0.3334,0.1748,0.0000,0.7114,-0.9760,-8.9520,-4.1416,-0.0234,-0.0950,-0.0556
P1R,R,1854843,0.7220,0.3310,0.1639,0.0000,0.7612,-1.1909,-9.0053,-4.0739,-0.0438,-0.0841,-0.0642
P1R,R,1854863,0.7239,0.3320,0.1699,0.0000,0.7468,-1.2089,-9.0298,-3.9602,-0.0497,-0.0652,-0.0505
P1R,R,1854883,0.7186,0.3344,0.1645,0.0000,0.7235,-1.2759,-9.1101,-3.7985,-0.0412,-0.0809,-0.0458
P1R,R,1854903,0.7249,0.3315,0.1558,0.0000,0.7406,-1.3454,-9.1580,-3.7141,-0.0204,-0.0979,-0.0418
P1R,R,1854923,0.7249,0.3399,0.1585,0.0000,0.7993,-1.4454,-9.2166,-3.7243,0.0040,-0.1026,-0.0148
P1R,R,1854943,0.7234,0.3325,0.1389,0.0000,0.7482,-1.2742,-9.1999,-3.7632,0.0252,-0.0965,0.0069
P1R,R,1854963,0.7191,0.3315,0.1688,0.0000,0.7652,-1.2155,-9.0957,-3.8458,0.0333,-0.1046,0.0216
P1R,R,1854983,0.7215,0.3305,0.1862,0.0000,0.8244,-1.1131,-9.0532,-3.9051,0.0473,-0.1236,0.0197
P1R,R,1855003,0.7249,0.3290,0.1666,0.0000,0.7477,-1.0796,-9.0562,-3.9434,0.0538,-0.1224,0.0123
P1R,R,1855023,0.7225,0.3325,0.1710,0.0000,0.8020,-1.0580,-9.0394,-4.0212,0.0385,-0.1116,0.0079
P1R,R,1855043,0.7239,0.3310,0.1525,0.0000,0.6975,-1.1089,-9.0310,-4.0021,0.0340,-0.0979,-0.0005
P1R,R,1855063,0.7225,0.3310,0.1655,0.0000,0.7477,-1.0466,-9.0178,-3.9512,0.0244,-0.0966,-0.0121
P1R,R,1855083,0.7220,0.3310,0.1612,0.0000,0.7437,-1.1676,-9.0520,-3.9200,0.0288,-0.1111,-0.0232
P1R,R,1855103,0.7225,0.3320,0.1813,0.0000,0.7948,-1.1712,-9.0651,-3.9218,0.0258,-0.1215,-0.0220
P1R,R,1855123,0.7263,0.3320,0.1607,0.0000,0.7334,-1.0891,-9.0945,-3.9584,0.0265,-0.0966,-0.0119
P1R,R,1855143,0.7263,0.3330,0.1737,0.0000,0.7509,-1.0239,-9.0628,-3.9248,0.0201,-0.0935,-0.0125
P1R,R,1855163,0.7239,0.3310,0.1986,0.0000,0.7491,-1.1023,-9.0705,-3.9069,0.0258,-0.0859,-0.0044
P1R,R,1855183,0.7263,0.3369,0.1639,0.0000,0.8101,-1.0400,-9.0735,-3.9236,0.0292,-0.0561,0.0069
P1R,R,1855203,0.7268,0.3359,0.1796,0.0000,0.7513,-1.0269,-9.0526,-4.0314,0.0310,-0.0729,-0.0217
P1R,R,1855223,0.7244,0.3349,0.1634,0.0000,0.7473,-1.0245,-8.9167,-3.9781,0.0338,-0.0845,-0.0401
P1R,R,1855243,0.7258,0.3389,0.1531,0.0000,0.6854,-1.0742,-9.0496,-4.0428,0.0392,-0.0802,-0.0453
P1R,R,1855263,0.7258,0.3349,0.1818,0.0000,0.7576,-1.2107,-9.0520,-4.0889,0.0099,-0.0801,-0.0394
P1R,R,1855283,0.7244,0.3374,0.1639,0.0000,0.8074,-1.1664,-8.9682,-3.9632,0.0151,-0.0537,-0.0184
P1R,R,1855303,0.7253,0.3344,0.1503,0.0000,0.7500,-1.1430,-9.1801,-4.0464,0.0027,-0.0644,-0.0199
P1R,R,1855323,0.7249,0.3354,0.1569,0.0000,0.8348,-1.1304,-9.0226,-3.9799,-0.0273,-0.0727,-0.0313
P1R,R,1855343,0.7273,0.3354,0.1639,0.0000,0.7679,-1.1526,-8.9963,-3.9117,-0.0063,-0.0625,-0.0238
P1R,R,1855363,0.7244,0.3320,0.1683,0.0000,0.8361,-1.1484,-9.0310,-3.9332,-0.0099,-0.0405,-0.0145
P1R,R,1855383,0.7239,0.3354,0.1769,0.0000,0.7455,-1.1197,-9.1005,-3.8913,-0.0027,-0.0418,-0.0173
P1R,R,1855403,0.7249,0.3374,0.1639,0.0000,0.8235,-1.1119,-9.0843,-3.8374,-0.0035,-0.0585,-0.0258
P1R,R,1855423,0.7258,0.3325,0.1650,0.0000,0.8536,-1.1352,-9.0987,-3.8452,-0.0021,-0.0687,-0.0373
P1R,R,1855443,0.7277,0.3354,0.1666,0.0000,0.7675,-1.2179,-9.0610,-3.8751,-0.0057,-0.0657,-0.0360
P1R,R,1855463,0.7234,0.3330,0.1601,0.0000,0.7989,-1.2508,-9.0640,-3.9021,-0.0019,-0.0401,-0.0217
P1R,R,1855483,0.7210,0.3334,0.1563,0.0000,0.8222,-1.2268,-9.0232,-3.9362,0.0003,-0.0230,-0.0088
P1R,R,1855503,0.7287,0.3344,0.1683,0.0000,0.8200,-1.1263,-9.0083,-3.8991,-0.0032,-0.0441,-0.0252
P1R,R,1855523,0.7234,0.3310,0.1427,0.0000,0.8123,-1.2598,-9.0412,-3.9290,-0.0016,-0.0618,-0.0305
P1R,R,1855543,0.7234,0.3339,0.1514,0.0000,0.7975,-1.2670,-9.0017,-3.8835,-0.0128,-0.0537,-0.0276
P1R,R,1855563,0.7234,0.3325,0.1639,0.0000,0.8222,-1.2712,-9.0262,-3.8350,0.0123,-0.0425,-0.0156
P1R,R,1855583,0.7234,0.3339,0.1503,0.0000,0.8164,-1.2227,-9.1053,-3.8937,0.0049,-0.0408,-0.0119
P1R,R,1855603,0.7186,0.3344,0.1677,0.0000,0.8352,-1.2873,-9.0220,-3.9045,0.0060,-0.0396,-0.0140
P1R,R,1855623,0.7287,0.3330,0.1655,0.0000,0.7957,-1.2233,-9.0502,-3.9003,0.0033,-0.0460,-0.0096
P1R,R,1855643,0.7215,0.3330,0.1655,0.0000,0.8442,-1.2843,-8.9747,-3.9440,0.0005,-0.0384,-0.0065
P1R,R,1855663,0.7239,0.3344,0.1661,0.0000,0.7904,-1.2191,-9.0424,-3.9344,0.0140,-0.0270,-0.0004
P1R,R,1855683,0.7244,0.3334,0.1737,0.0000,0.8289,-1.1658,-9.0598,-3.9189,-0.0076,-0.0224,-0.0045
P1R,R,1855703,0.7210,0.3325,0.1672,0.0000,0.7280,-1.3358,-9.0562,-3.8326,-0.0069,-0.0325,-0.0088
P1R,R,1855723,0.7234,0.3339,0.1791,0.0000,0.8832,-1.2885,-9.1125,-3.8129,-0.0049,-0.0253,0.0052
P1R,R,1855743,0.7253,0.3344,0.1585,0.0000,0.7890,-1.2340,-9.1130,-3.7740,0.0057,-0.0412,0.0008
P1R,R,1855763,0.7234,0.3339,0.1590,0.0000,0.7612,-1.2753,-9.1196,-3.7763,0.0064,-0.0633,-0.0020
P1R,R,1855783,0.7234,0.3354,0.1683,0.0000,0.8119,-1.2759,-9.0873,-3.7841,0.0135,-0.0588,-0.0016
P1R,R,1855803,0.7234,0.3344,0.1704,0.0000,0.7814,-1.2245,-9.0741,-3.8590,0.0261,-0.0390,0.0171
P1R,R,1855823,0.7220,0.3359,0.1807,0.0000,0.7392,-1.0329,-9.0418,-3.8865,0.0196,-0.0512,0.0028
P1R,R,1855843,0.7263,0.3330,0.1590,0.0000,0.7572,-1.2029,-9.0190,-3.9805,0.0213,-0.0628,-0.0169
P1R,R,1855863,0.7253,0.3414,0.1894,0.0000,0.8083,-1.2065,-9.1083,-3.9781,0.0099,-0.0274,0.0009
P1R,R,1855883,0.7258,0.3364,0.1607,0.0000,0.7383,-1.0269,-8.9783,-3.9428,-0.0004,-0.0246,0.0063
P1R,R,1855903,0.7292,0.3320,0.1748,0.0000,0.7446,-1.1400,-9.1083,-3.9356,0.0083,-0.0377,-0.0029
P1R,R,1855923,0.7263,0.3280,0.1655,0.0000,0.7518,-1.1664,-9.0047,-3.9069,-0.0028,-0.0448,-0.0053
P1R,R,1855943,0.7253,0.3231,0.1677,0.0000,0.7204,-1.2274,-9.0634,-3.8739,0.0140,-0.0185,0.0093
P1R,R,1855963,0.7273,0.3364,0.1335,0.0000,0.7509,-1.1466,-9.0981,-3.8919,0.0109,-0.0031,0.0149
P1R,R,1855983,0.7253,0.3359,0.1645,0.0000,0.8060,-1.1310,-9.0693,-3.9003,-0.0005,-0.0111,-0.0021
P1R,R,1856003,0.7258,0.3330,0.1688,0.0000,0.7213,-1.1963,-8.9987,-3.8680,0.0131,-0.0220,-0.0087
P1R,R,1856023,0.7258,0.3315,0.1650,0.0000,0.7590,-1.1616,-9.1364,-3.9332,0.0020,-0.0148,0.0011
P1R,R,1856043,0.7229,0.3334,0.1607,0.0000,0.7383,-1.1424,-9.0125,-3.9338,-0.0155,-0.0215,-0.0031
P1R,R,1856063,0.7225,0.3354,0.1449,0.0000,0.7616,-1.1101,-8.9999,-3.8524,-0.0036,-0.0215,-0.0068
P1R,R,1856083,0.7282,0.3325,0.1346,0.0000,0.8617,-1.1945,-9.1280,-3.9404,0.0103,-0.0278,-0.0184
P1R,R,1856103,0.7258,0.3320,0.1574,0.0000,0.7468,-1.2706,-9.1364,-3.9362,-0.0113,-0.0265,-0.0120
P1R,R,1856123,0.7253,0.3305,0.1677,0.0000,0.7312,-1.2706,-9.0220,-3.8087,-0.0096,-0.0230,-0.0027
P1R,R,1856143,0.7181,0.3330,0.1672,0.0000,0.7509,-1.1448,-9.1376,-3.7835,0.0081,-0.0111,0.0044
P1R,R,1856163,0.7244,0.3364,0.1536,0.0000,0.7424,-1.1688,-9.1148,-3.8320,0.0029,-0.0304,-0.0016
P1R,R,1856183,0.7244,0.3300,0.1645,0.0000,0.7316,-1.1412,-9.0681,-3.8207,-0.0040,-0.0349,-0.0121
P1R,R,1856203,0.7258,0.3325,0.1894,0.0000,0.7558,-1.2316,-9.0687,-3.7955,0.0075,-0.0252,-0.0193
P1R,R,1856223,0.7253,0.3325,0.1601,0.0000,0.7468,-1.2712,-9.0562,-3.8572,0.0147,-0.0133,-0.0048
P1R,R,1856243,0.7196,0.3285,0.1688,0.0000,0.7312,-1.1903,-9.0849,-3.9057,0.0127,-0.0163,-0.0064
P1R,R,1856263,0.7273,0.3334,0.1563,0.0000,0.8060,-1.2706,-9.0586,-3.8536,0.0063,-0.0388,-0.0151
P1R,R,1856283,0.7186,0.3379,0.1639,0.0000,0.7697,-1.2550,-9.0951,-3.8440,0.0028,-0.0296,-0.0016
P1R,R,1856303,0.7253,0.3305,0.1655,0.0000,0.7051,-1.2209,-9.0298,-3.8219,0.0089,-0.0366,-0.0023
P1R,R,1856323,0.7249,0.3285,0.1824,0.0000,0.7069,-1.1951,-9.1214,-3.8901,0.0072,-0.0388,-0.0103
P1R,R,1856343,0.7268,0.3334,0.1851,0.0000,0.7616,-1.2532,-9.0466,-3.8530,0.0035,-0.0388,-0.0073
P1R,R,1856363,0.7181,0.3349,0.1558,0.0000,0.7428,-1.2777,-9.0663,-3.8446,0.0035,-0.0294,0.0021
P1R,R,1856383,0.7273,0.3374,0.1601,0.0000,0.8074,-1.2053,-9.0502,-3.8662,-0.0035,-0.0272,0.0025
P1R,R,1856403,0.7253,0.3315,0.1661,0.0000,0.7146,-1.2352,-9.0490,-3.8177,0.0045,-0.0509,-0.0129
P1R,R,1856423,0.7234,0.3334,0.1596,0.0000,0.7155,-1.2101,-9.1107,-3.7829,0.0035,-0.0286,-0.0032
P1R,R,1856443,0.7244,0.3354,0.1514,0.0000,0.7621,-1.2304,-9.1430,-3.7991,0.0049,-0.0245,0.0007
P1R,R,1856463,0.7244,0.3325,0.1569,0.0000,0.7594,-1.1538,-9.0957,-3.7817,0.0084,-0.0368,-0.0033
P1R,R,1856483,0.7234,0.3330,0.1628,0.0000,0.7343,-1.2861,-9.1352,-3.8775,0.0108,-0.0270,-0.0057
P1R,R,1856503,0.7234,0.3325,0.1634,0.0000,0.8222,-1.2394,-9.0304,-3.8117,0.0119,-0.0322,0.0064
P1R,R,1856523,0.7258,0.3325,0.1563,0.0000,0.8392,-1.1903,-9.1125,-3.8644,0.0163,-0.0228,0.0125
P1R,R,1856543,0.7244,0.3339,0.1731,0.0000,0.7392,-1.1664,-9.0675,-3.8272,0.0136,-0.0386,0.0039
P1R,R,1856563,0.7249,0.3310,0.1655,0.0000,0.8155,-1.1837,-9.0741,-3.8476,0.0179,-0.0211,0.0008
P1R,R,1856583,0.7249,0.3394,0.1558,0.0000,0.7226,-1.1496,-9.0544,-3.8614,0.0077,-0.0289,-0.0060
P1R,R,1856603,0.7258,0.3176,0.1775,0.0000,0.8177,-1.1173,-9.0430,-3.8745,0.0063,-0.0404,-0.0233
P1R,R,1856623,0.7258,0.3320,0.1438,0.0000,0.7428,-1.3610,-9.0813,-3.9045,0.0053,-0.0332,-0.0144
P1R,R,1856643,0.7249,0.3290,0.1449,0.0000,0.8083,-1.2897,-9.0107,-3.8536,0.0039,-0.0197,0.0077
P1R,R,1856663,0.7263,0.3250,0.1655,0.0000,0.8047,-1.2544,-9.0825,-3.8931,0.0097,-0.0181,0.0184
P1R,R,1856683,0.7249,0.3320,0.1417,0.0000,0.7881,-1.2023,-9.1029,-3.9260,-0.0033,-0.0220,0.0139
P1R,R,1856703,0.7268,0.3310,0.1601,0.0000,0.8567,-1.2227,-9.1250,-3.8997,-0.0257,-0.0313,0.0028
P1R,R,1856723,0.7292,0.3280,0.1677,0.0000,0.8087,-1.2089,-9.0550,-3.7620,-0.0314,-0.0265,0.0121
P1R,R,1856743,0.7311,0.3325,0.1758,0.0000,0.8078,-1.0604,-9.0951,-3.7722,-0.0512,-0.0204,-0.0003
P1R,R,1856763,0.7253,0.3270,0.1623,0.0000,0.8020,-1.2400,-9.0370,-3.7428,-0.0103,-0.0305,-0.0011
P1R,R,1856783,0.7282,0.3320,0.1645,0.0000,0.8110,-1.1855,-9.1400,-3.7404,0.0064,-0.0073,0.0091
P1R,R,1856803,0.7268,0.3315,0.1677,0.0000,0.8114,-1.1772,-9.1268,-3.7452,0.0112,-0.0093,0.0167
P1R,R,1856823,0.7287,0.3300,0.1710,0.0000,0.7939,-1.0706,-9.0532,-3.7446,0.0228,-0.0269,-0.0052
P1R,R,1856843,0.7273,0.3310,0.1525,0.0000,0.8213,-1.2221,-9.1352,-3.8793,0.0204,-0.0516,-0.0229
P1R,R,1856863,0.7330,0.3310,0.1720,0.0000,0.8379,-1.2747,-9.0496,-3.9446,0.0065,-0.0446,-0.0156
P1R,R,1856883,0.7268,0.3305,0.1471,0.0000,0.8150,-1.2915,-9.0699,-3.9398,-0.0008,-0.0196,0.0016
P1R,R,1856903,0.7282,0.3285,0.1623,0.0000,0.8356,-1.2592,-9.0262,-3.9302,-0.0176,-0.0280,0.0061
P1R,R,1856923,0.7306,0.3275,0.1677,0.0000,0.8208,-1.2574,-9.1011,-3.8949,-0.0304,-0.0378,0.0044
P1R,R,1856943,0.7263,0.3290,0.1677,0.0000,0.8173,-1.2747,-9.0735,-3.7440,-0.0390,-0.0389,0.0156
P1R,R,1856963,0.7282,0.3310,0.1780,0.0000,0.7944,-1.1843,-9.0825,-3.6386,-0.0217,-0.0276,0.0225
P1R,R,1856983,0.7273,0.3295,0.1650,0.0000,0.8047,-1.0921,-9.1801,-3.6135,-0.0091,-0.0253,0.0221
P1R,R,1857003,0.7273,0.3305,0.1639,0.0000,0.7917,-1.0640,-9.1789,-3.6452,0.0172,-0.0405,0.0033
P1R,R,1857023,0.7282,0.3295,0.1541,0.0000,0.8164,-1.1083,-9.1927,-3.7237,0.0234,-0.0337,-0.0085
P1R,R,1857043,0.7277,0.3389,0.1699,0.0000,0.7365,-1.1472,-9.1113,-3.7686,0.0195,-0.0328,-0.0093
P1R,R,1857063,0.7268,0.3295,0.1645,0.0000,0.8029,-1.1891,-9.1280,-3.7775,0.0103,-0.0328,-0.0084
P1R,R,1857083,0.7316,0.3315,0.1731,0.0000,0.8850,-1.1742,-9.0125,-3.7997,0.0108,-0.0396,-0.0133
P1R,R,1857103,0.7292,0.3295,0.1807,0.0000,0.7832,-1.2131,-9.0837,-3.7823,0.0211,-0.0412,-0.0136
P1R,R,1857123,0.7292,0.3310,0.1465,0.0000,0.7307,-1.2047,-9.1113,-3.8189,0.0143,-0.0386,-0.0181
P1R,R,1857143,0.7258,0.3280,0.1677,0.0000,0.8096,-1.2292,-9.0771,-3.7997,0.0093,-0.0326,-0.0137
P1R,R,1857163,0.7273,0.3295,0.1601,0.0000,0.7276,-1.2544,-9.0933,-3.8470,0.0031,-0.0334,-0.0081
P1R,R,1857183,0.7292,0.3290,0.1650,0.0000,0.8038,-1.1963,-9.0927,-3.8494,-0.0093,-0.0301,-0.0011
P1R,R,1857203,0.7282,0.3265,0.1655,0.0000,0.7590,-1.2927,-9.0107,-3.7841,-0.0011,-0.0413,0.0021
P1R,R,1857223,0.7253,0.3285,0.1493,0.0000,0.7670,-1.1718,-9.1843,-3.8446,-0.0056,-0.0332,0.0068
P1R,R,1857243,0.7297,0.3260,0.1672,0.0000,0.8419,-1.1352,-9.1496,-3.7267,-0.0171,-0.0454,-0.0028
P1R,R,1857263,0.7287,0.3310,0.1579,0.0000,0.7769,-1.1520,-9.1430,-3.6740,-0.0152,-0.0374,-0.0060
P1R,R,1857283,0.7277,0.3280,0.1677,0.0000,0.7451,-1.1963,-9.0993,-3.6596,-0.0028,-0.0205,0.0017
P1R,R,1857303,0.7258,0.3275,0.1704,0.0000,0.7365,-1.1514,-9.1562,-3.6195,0.0165,-0.0141,0.0008
P1R,R,1857323,0.7297,0.3315,0.1569,0.0000,0.7101,-1.1879,-9.1783,-3.6602,0.0181,-0.0185,-0.0032
P1R,R,1857343,0.7277,0.3280,0.1330,0.0000,0.7047,-1.2424,-9.1119,-3.7225,0.0288,-0.0220,-0.0045
P1R,R,1857363,0.7273,0.3231,0.1601,0.0000,0.7576,-1.2676,-9.0951,-3.7757,0.0357,-0.0314,-0.0017
P1R,R,1857383,0.7297,0.3320,0.1574,0.0000,0.7244,-1.2502,-9.0867,-3.8159,0.0370,-0.0497,-0.0065
P1R,R,1857403,0.7263,0.3295,0.1547,0.0000,0.7540,-1.2670,-9.0699,-3.8602,0.0249,-0.0589,-0.0087
P1R,R,1857423,0.7306,0.3265,0.1596,0.0000,0.7670,-1.2442,-9.0628,-3.8518,0.0184,-0.0332,0.0053
P1R,R,1857443,0.7321,0.3285,0.1585,0.0000,0.7558,-1.1466,-9.0969,-3.8524,0.0104,-0.0338,0.0076
P1R,R,1857463,0.7292,0.3250,0.1628,0.0000,0.7370,-1.0736,-9.0777,-3.8266,0.0068,-0.0372,0.0011
P1R,R,1857483,0.7282,0.3265,0.1623,0.0000,0.7563,-1.1394,-9.0873,-3.7889,0.0100,-0.0321,-0.0036
P1R,R,1857503,0.7297,0.3295,0.1666,0.0000,0.7343,-1.1364,-9.0915,-3.8236,0.0175,-0.0268,-0.0003
P1R,R,1857523,0.7287,0.3285,0.1639,0.0000,0.8316,-1.1358,-9.1130,-3.8350,0.0100,-0.0232,-0.0099
P1R,R,1857543,0.7273,0.3270,0.1297,0.0000,0.7280,-1.2400,-9.1053,-3.8135,-0.0043,-0.0286,-0.0189
P1R,R,1857563,0.7277,0.3260,0.1623,0.0000,0.7657,-1.2849,-9.0897,-3.7572,-0.0055,-0.0317,-0.0137
P1R,R,1857583,0.7297,0.3270,0.1601,0.0000,0.7729,-1.2346,-9.1268,-3.7494,-0.0020,-0.0329,-0.0044
P1R,R,1857603,0.7292,0.3270,0.1579,0.0000,0.8110,-1.3023,-9.1304,-3.7410,-0.0035,-0.0384,-0.0023
P1R,R,1857623,0.7273,0.3290,0.1357,0.0000,0.8069,-1.3083,-9.0987,-3.7638,-0.0008,-0.0273,0.0079
P1R,R,1857643,0.7287,0.3290,0.1558,0.0000,0.8321,-1.2610,-9.1729,-3.7763,-0.0103,-0.0123,0.0226
P1R,R,1857663,0.7287,0.3280,0.1672,0.0000,0.7554,-1.3011,-9.0430,-3.6847,-0.0141,-0.0248,0.0329
P1R,R,1857683,0.7306,0.3285,0.1731,0.0000,0.7468,-1.2310,-9.1053,-3.7476,0.0061,-0.0073,0.0478
P1R,R,1857703,0.7273,0.3300,0.1455,0.0000,0.7338,-0.9502,-9.1023,-3.6895,0.0115,-0.0076,0.0452
P1R,R,1857723,0.7311,0.3285,0.1476,0.0000,0.8536,-0.9975,-9.1232,-3.7314,0.0212,-0.0681,-0.0061
P1R,R,1857743,0.7287,0.3300,0.1433,0.0000,0.7424,-1.0945,-9.1310,-3.7644,0.0211,-0.0493,-0.0109
P1R,R,1857763,0.7277,0.3275,0.1563,0.0000,0.8069,-1.1083,-9.1023,-3.8027,0.0133,-0.0309,-0.0064
P1R,R,1857783,0.7268,0.3290,0.1628,0.0000,0.8244,-1.0957,-9.1035,-3.8093,0.0043,-0.0296,-0.0073
P1R,R,1857803,0.7297,0.3285,0.1574,0.0000,0.8092,-1.1322,-9.0831,-3.7039,0.0089,-0.0340,-0.0147
P1R,R,1857823,0.7306,0.3290,0.1612,0.0000,0.8056,-1.2149,-9.1568,-3.6728,0.0201,-0.0409,-0.0168
P1R,R,1857843,0.7292,0.3275,0.1617,0.0000,0.8594,-1.2586,-9.1717,-3.7446,0.0187,-0.0373,-0.0123
