person_id,label,timestamp,flex1,flex2,flex3,flex4,flex5,ax,ay,az,gx,gy,gz
P1S,S,82143,0.9922,0.9907,1.0000,0.9957,0.9711,-1.3664,-9.2316,-3.4452,0.0209,-0.0155,0.0076
P1S,S,82163,0.9914,0.9928,1.0000,0.9803,0.9734,-1.1903,-9.2100,-3.4297,0.0123,-0.0176,0.0129
P1S,S,82183,0.9944,0.9870,0.9909,0.9684,0.9808,-1.2843,-9.1915,-3.4189,0.0197,-0.0541,-0.0121
P1S,S,82203,0.9962,0.9928,0.9938,0.9971,0.9669,-1.2753,-9.2250,-3.4243,0.0109,-0.0384,-0.0047
P1S,S,82223,0.9933,0.9911,1.0000,0.9942,1.0000,-1.2191,-9.2202,-3.3740,0.0188,-0.0433,0.0004
P1S,S,82243,0.9925,0.9928,0.9888,1.0000,0.9530,-1.2197,-9.2723,-3.3842,0.0200,-0.0262,0.0027
P1S,S,82263,0.9933,0.9911,1.0000,0.9624,0.9818,-1.1951,-9.2573,-3.3818,0.0169,-0.0424,-0.0024
P1S,S,82283,0.9936,0.9932,1.0000,0.9807,0.9697,-1.1981,-9.2496,-3.4249,0.0139,-0.0433,-0.0033
P1S,S,82303,0.9933,0.9936,0.9842,0.9953,1.0000,-1.2430,-9.2083,-3.4027,0.0196,-0.0221,-0.0020
P1S,S,82323,0.9899,0.9936,0.9551,0.9990,0.9660,-1.1897,-9.2400,-3.3913,0.0338,-0.0266,-0.0020
P1S,S,82343,0.9918,0.9949,1.0000,0.9713,0.9780,-1.2682,-9.2232,-3.4099,0.0296,-0.0177,0.0069
P1S,S,82363,0.9918,0.9899,0.9892,1.0000,0.9576,-1.1029,-9.2083,-3.4159,0.0432,-0.0193,0.0089
P1S,S,82383,0.9899,0.9895,1.0000,0.9788,0.9938,-1.2945,-9.2478,-3.4470,0.0433,-0.0197,0.0068
P1S,S,82403,0.9896,0.9924,0.9880,0.9893,1.0000,-1.3382,-9.3645,-3.4949,0.0353,0.0424,0.0316
P1S,S,82423,0.9914,0.9928,0.9772,0.9957,0.9483,-0.9730,-9.1951,-3.4087,-0.0246,0.0139,0.0313
P1S,S,82443,0.9829,0.9903,0.9938,0.9885,0.9674,-1.3322,-9.2741,-3.4578,-0.0225,-0.0534,0.0233
P1S,S,82463,0.9896,0.9928,0.9601,0.9609,0.9655,-1.3646,-9.0783,-3.3201,-0.0072,-0.0216,0.0272
P1S,S,82483,0.9910,0.9895,0.9901,0.9755,0.9455,-1.3795,-9.1586,-3.2560,0.0601,0.0021,0.0436
P1S,S,82503,0.9929,0.9907,0.9838,0.9915,0.9985,-1.1580,-9.1574,-3.2327,0.1086,-0.0069,0.0352
P1S,S,82523,0.9910,0.9920,0.9950,0.9758,0.9669,-1.2065,-9.3136,-3.3632,0.1308,-0.0353,0.0224
P1S,S,82543,0.9903,0.9907,0.9855,0.9938,1.0000,-1.1304,-9.3819,-3.4392,0.1147,-0.0300,0.0274
P1S,S,82563,0.9903,0.9886,1.0000,0.9908,0.9562,-1.1065,-9.3699,-3.5692,0.0629,-0.0452,0.0184
P1S,S,82583,0.9877,0.9874,0.9772,0.9885,1.0000,-1.1724,-9.1478,-3.5835,0.0372,-0.0366,0.0036
P1S,S,82603,0.9888,0.9878,0.9967,0.9998,0.9390,-1.1029,-9.1190,-3.5009,0.0604,-0.0055,0.0023
P1S,S,82623,0.9896,0.9874,0.9859,0.9949,0.9544,-1.0879,-9.1645,-3.5542,0.0766,-0.0044,-0.0088
P1S,S,82643,0.9859,0.9874,0.9880,0.9631,0.9734,-1.1490,-9.3939,-3.5877,0.0461,-0.0085,-0.0093
P1S,S,82663,0.9840,0.9857,0.9851,1.0000,0.9316,-1.0526,-9.3208,-3.5476,-0.0128,-0.0161,-0.0140
P1S,S,82683,0.9822,0.9878,0.9942,0.9957,0.9562,-1.0227,-9.2669,-3.5518,-0.0393,-0.0857,-0.0145
P1S,S,82703,0.9785,0.9865,0.9776,0.9919,0.9855,-1.1945,-8.9981,-3.4440,-0.0420,-0.1471,-0.0208
P1S,S,82723,0.9663,0.9824,0.9967,0.9964,0.9980,-1.0963,-8.8484,-3.3279,0.0552,-0.1956,-0.0236
P1S,S,82743,0.9607,0.9786,0.9896,0.9766,0.9613,-1.0275,-8.8915,-3.3428,0.1968,-0.3070,-0.0400
P1S,S,82763,0.9537,0.9686,0.9913,0.9927,0.9344,-1.2927,-9.1083,-3.5237,0.2934,-0.3881,-0.0465
P1S,S,82783,0.9426,0.9632,0.9876,0.9938,0.9121,-1.2897,-9.3076,-3.7769,0.2807,-0.4157,0.0031
P1S,S,82803,0.9330,0.9611,0.9776,1.0000,0.8578,-0.9580,-9.4639,-4.0230,0.1772,-0.5177,0.0358
P1S,S,82823,0.9145,0.9519,0.9755,1.0000,0.8995,-1.0766,-9.3172,-4.1260,0.0220,-0.6277,0.0562
P1S,S,82843,0.9071,0.9398,0.9476,1.0000,0.7746,-1.1394,-8.7724,-4.0117,-0.0438,-0.6556,0.0750
P1S,S,90863,0.9929,0.9219,0.8504,1.0000,0.7491,-0.6239,-9.4795,-2.3938,0.0099,-0.0218,-0.0020
P1S,S,90903,0.9929,0.9240,0.8275,1.0000,0.7546,-0.6544,-9.6196,-2.3292,0.0218,-0.0690,-0.0436
P1S,S,90923,0.9951,0.9257,0.8333,1.0000,0.7890,-0.7886,-9.6382,-2.2872,0.0189,-0.0675,-0.0390
P1S,S,90943,0.9940,0.9223,0.8325,0.9796,0.7704,-0.8059,-9.5106,-2.3238,0.0181,-0.0480,-0.0187
P1S,S,90963,0.9929,0.9248,0.8225,1.0000,0.7472,-0.8059,-9.5579,-2.3477,0.0386,-0.0432,-0.0065
P1S,S,90983,0.9940,0.9278,0.8370,1.0000,0.7704,-0.7173,-9.5717,-2.3543,0.0436,-0.0537,-0.0204
P1S,S,91003,0.9970,0.9227,0.7946,1.0000,0.7430,-0.8005,-9.5489,-2.4226,0.0400,-0.0545,-0.0241
P1S,S,91023,0.9944,0.9294,0.8545,1.0000,0.7755,-0.7580,-9.5573,-2.4387,0.0269,-0.0376,-0.0100
P1S,S,91043,0.9929,0.9202,0.8171,1.0000,0.7923,-0.7047,-9.4723,-2.4890,0.0292,-0.0564,-0.0139
P1S,S,91063,0.9922,0.9177,0.8549,1.0000,0.7282,-0.7916,-9.5442,-2.5244,0.0312,-0.0621,-0.0103
P1S,S,91083,0.9955,0.9236,0.8005,1.0000,0.7704,-0.7047,-9.5909,-2.5238,0.0197,-0.0448,-0.0099
P1S,S,91103,0.9933,0.9165,0.8583,1.0000,0.7630,-0.7167,-9.5471,-2.5088,0.0041,-0.0592,-0.0141
P1S,S,91123,0.9925,0.9290,0.8296,1.0000,0.7876,-0.8454,-9.5214,-2.5543,-0.0084,-0.0473,-0.0017
P1S,S,91143,0.9929,0.9215,0.8462,1.0000,0.7314,-0.6754,-9.4370,-2.4303,0.0003,-0.0233,0.0095
P1S,S,91163,0.9936,0.9207,0.7855,1.0000,0.8146,-0.6179,-9.5639,-2.4836,0.0095,-0.0490,-0.0005
P1S,S,91183,0.9936,0.9211,0.8154,1.0000,0.8294,-0.6856,-9.5376,-2.4393,-0.0019,-0.0472,-0.0123
P1S,S,91203,0.9944,0.9244,0.8308,1.0000,0.7904,-0.6341,-9.4921,-2.3657,0.0005,-0.0298,-0.0136
P1S,S,91223,0.9918,0.9186,0.8237,1.0000,0.7505,-0.7431,-9.5543,-2.3483,0.0096,-0.0270,-0.0193
P1S,S,91243,0.9933,0.9182,0.8242,0.9908,0.7695,-0.7335,-9.5837,-2.3441,0.0163,-0.0087,-0.0104
P1S,S,91263,0.9936,0.9173,0.8042,0.9818,0.7588,-0.7143,-9.6070,-2.3789,0.0179,-0.0302,-0.0152
P1S,S,91283,0.9922,0.9207,0.8296,1.0000,0.7751,-0.8029,-9.5567,-2.3872,0.0143,-0.0350,-0.0149
P1S,S,91303,0.9929,0.9123,0.8175,1.0000,0.7825,-0.8059,-9.6022,-2.4459,0.0167,-0.0461,-0.0055
P1S,S,91323,0.9929,0.9207,0.8287,1.0000,0.7834,-0.8053,-9.5004,-2.4405,0.0043,-0.0476,-0.0069
P1S,S,91343,0.9922,0.9182,0.7930,0.9878,0.7695,-0.7041,-9.5561,-2.4477,0.0164,-0.0490,-0.0036
P1S,S,91363,0.9925,0.9194,0.8292,1.0000,0.8062,-0.7454,-9.5304,-2.4435,0.0027,-0.0650,-0.0115
P1S,S,91383,0.9899,0.9173,0.8113,1.0000,0.8317,-0.7778,-9.4837,-2.3860,0.0161,-0.0400,-0.0044
P1S,S,91403,0.9914,0.9173,0.7971,1.0000,0.7862,-0.6784,-9.5939,-2.4208,0.0221,-0.0249,0.0099
P1S,S,91423,0.9929,0.9165,0.8283,0.9923,0.7783,-0.6886,-9.5501,-2.4788,0.0127,-0.0392,-0.0015
P1S,S,91443,0.9933,0.9165,0.8237,1.0000,0.7296,-0.6916,-9.5280,-2.4800,0.0092,-0.0490,-0.0113
P1S,S,91463,0.9918,0.9257,0.8275,0.9654,0.7658,-0.7784,-9.4340,-2.4597,0.0124,-0.0477,-0.0228
P1S,S,91483,0.9936,0.9169,0.8179,1.0000,0.7611,-0.7215,-9.5519,-2.4681,0.0346,-0.0460,-0.0079
P1S,S,91503,0.9925,0.9123,0.8275,1.0000,0.7718,-0.6778,-9.5962,-2.4214,0.0216,-0.0930,-0.0172
P1S,S,91523,0.9929,0.9194,0.8158,1.0000,0.7737,-0.8897,-9.5609,-2.4597,0.0211,-0.0859,-0.0108
P1S,S,91543,0.9929,0.9202,0.8254,0.9814,0.8048,-0.9311,-9.5639,-2.4501,-0.0016,-0.0292,0.0171
P1S,S,91563,0.9918,0.9165,0.7980,1.0000,0.7867,-0.5844,-9.4286,-2.3992,0.0240,-0.0300,0.0176
P1S,S,91583,0.9914,0.9198,0.8820,1.0000,0.7463,-0.6598,-9.6639,-2.4836,0.0361,-0.0839,-0.0105
P1S,S,91603,0.9910,0.9169,0.8246,1.0000,0.8122,-0.7365,-9.6370,-2.4585,0.0020,-0.0637,-0.0128
P1S,S,91623,0.9925,0.9132,0.8844,1.0000,0.8331,-0.7125,-9.5184,-2.4220,-0.0089,-0.0234,-0.0001
P1S,S,91643,0.9936,0.9132,0.8275,1.0000,0.8160,-0.6856,-9.5184,-2.4016,0.0003,-0.0258,-0.0057
P1S,S,91663,0.9922,0.9119,0.8208,1.0000,0.7096,-0.6796,-9.4400,-2.3956,0.0175,-0.0261,-0.0261
P1S,S,91683,0.9918,0.9115,0.8200,0.9523,0.7611,-0.7538,-9.5483,-2.4932,0.0332,-0.0421,-0.0169
P1S,S,91703,0.9929,0.9202,0.8337,1.0000,0.7598,-0.8323,-9.5897,-2.5130,0.0160,-0.0305,-0.0077
P1S,S,91723,0.9922,0.9123,0.8237,1.0000,0.7203,-0.7658,-9.5250,-2.5261,-0.0047,-0.0173,0.0016
P1S,S,91743,0.9892,0.9144,0.8055,1.0000,0.7886,-0.7520,-9.5561,-2.4908,-0.0003,-0.0260,0.0024
P1S,S,91763,0.9903,0.9119,0.8242,1.0000,0.8034,-0.7287,-9.4986,-2.4675,-0.0065,-0.0317,0.0013
P1S,S,91783,0.9907,0.9169,0.8200,1.0000,0.7398,-0.6820,-9.5849,-2.4297,-0.0047,-0.0326,0.0017
P1S,S,91803,0.9899,0.9190,0.8458,1.0000,0.7472,-0.6844,-9.5394,-2.3669,-0.0068,-0.0340,-0.0144
P1S,S,91823,0.9907,0.9127,0.8171,1.0000,0.7658,-0.7209,-9.5645,-2.3687,-0.0009,-0.0298,-0.0104
P1S,S,91843,0.9907,0.9061,0.8645,1.0000,0.7690,-0.7251,-9.5651,-2.3304,0.0185,-0.0290,-0.0100
P1S,S,91863,0.9914,0.9198,0.7847,0.9874,0.7923,-0.7508,-9.5956,-2.3747,0.0232,-0.0450,-0.0111
P1S,S,91883,0.9907,0.9165,0.8333,1.0000,0.8090,-0.8023,-9.5424,-2.4166,0.0256,-0.0512,-0.0089
P1S,S,91903,0.9899,0.9136,0.8242,1.0000,0.8099,-0.8299,-9.5693,-2.5136,0.0167,-0.0336,0.0032
P1S,S,91923,0.9888,0.9257,0.8296,0.9990,0.7690,-0.7963,-9.4693,-2.4932,0.0132,-0.0211,0.0145
P1S,S,91943,0.9933,0.9107,0.8204,1.0000,0.7593,-0.6652,-9.5436,-2.4806,0.0189,-0.0404,0.0075
P1S,S,91963,0.9881,0.9127,0.8221,1.0000,0.7505,-0.7071,-9.5328,-2.4932,0.0032,-0.0594,-0.0069
P1S,S,91983,0.9907,0.9123,0.8346,1.0000,0.7560,-0.7598,-9.5160,-2.4555,0.0080,-0.0398,-0.0001
P1S,S,92003,0.9866,0.9202,0.8337,1.0000,0.7598,-0.6652,-9.5741,-2.4453,0.0160,-0.0112,0.0041
P1S,S,92023,0.9918,0.9061,0.8262,0.9792,0.7686,-0.6526,-9.5376,-2.4693,0.0037,-0.0466,-0.0051
P1S,S,92043,0.9899,0.9152,0.8196,1.0000,0.7509,-0.8017,-9.5148,-2.4585,0.0108,-0.0432,-0.0085
P1S,S,92063,0.9899,0.9127,0.8254,1.0000,0.7663,-0.7101,-9.5298,-2.4830,0.0087,-0.0246,-0.0025
P1S,S,92083,0.9907,0.9119,0.7855,1.0000,0.7677,-0.7287,-9.5807,-2.4776,0.0016,-0.0364,-0.0047
P1S,S,92103,0.9929,0.9177,0.8425,1.0000,0.7593,-0.7496,-9.5633,-2.4465,-0.0151,-0.0309,-0.0052
P1S,S,92123,0.9914,0.9207,0.8171,1.0000,0.7913,-0.6999,-9.4986,-2.3878,-0.0092,-0.0362,-0.0087
P1S,S,92143,0.9910,0.9148,0.8188,1.0000,0.7314,-0.7910,-9.5603,-2.4309,0.0084,-0.0472,-0.0072
P1S,S,92163,0.9914,0.9115,0.8009,1.0000,0.7983,-0.7502,-9.5561,-2.4423,0.0057,-0.0253,-0.0045
P1S,S,92183,0.9892,0.9157,0.8537,1.0000,0.7184,-0.6676,-9.5454,-2.3501,0.0069,-0.0298,-0.0033
P1S,S,92203,0.9892,0.9127,0.8242,0.9923,0.8094,-0.7365,-9.5873,-2.3741,0.0153,-0.0452,-0.0091
P1S,S,92223,0.9903,0.9098,0.8229,1.0000,0.7709,-0.7155,-9.5759,-2.4190,0.0068,-0.0309,-0.0020
P1S,S,92243,0.9910,0.9190,0.8316,1.0000,0.7723,-0.7431,-9.5232,-2.3980,0.0100,-0.0304,0.0008
P1S,S,92263,0.9896,0.9119,0.8204,1.0000,0.6971,-0.7670,-9.4998,-2.4286,0.0228,-0.0069,0.0048
P1S,S,92283,0.9896,0.9132,0.7963,0.9927,0.8071,-0.7227,-9.6094,-2.5136,0.0270,-0.0196,0.0051
P1S,S,92303,0.9892,0.9123,0.8208,1.0000,0.7486,-0.7347,-9.5633,-2.4753,0.0024,-0.0320,-0.0003
P1S,S,92323,0.9899,0.9127,0.8504,0.9986,0.8104,-0.8179,-9.5082,-2.4687,-0.0037,-0.0357,0.0051
P1S,S,92343,0.9892,0.9132,0.8084,0.9844,0.7681,-0.6580,-9.5160,-2.3932,0.0141,-0.0322,0.0043
P1S,S,92363,0.9907,0.9152,0.8246,1.0000,0.8141,-0.7963,-9.5968,-2.4627,0.0097,-0.0276,0.0048
P1S,S,92383,0.9899,0.9136,0.7913,1.0000,0.8666,-0.6467,-9.4807,-2.4549,0.0125,-0.0131,0.0111
P1S,S,92403,0.9903,0.9136,0.8337,1.0000,0.7663,-0.6808,-9.5723,-2.4357,0.0167,-0.0047,0.0079
P1S,S,92423,0.9910,0.9136,0.8217,1.0000,0.8164,-0.5281,-9.5549,-2.4315,0.0084,-0.0533,-0.0123
P1S,S,92443,0.9896,0.9165,0.8408,1.0000,0.7556,-0.8263,-9.6471,-2.4363,-0.0085,-0.0714,-0.0246
P1S,S,92463,0.9903,0.9107,0.8213,1.0000,0.8201,-0.7808,-9.4531,-2.3938,-0.0116,-0.0127,-0.0043
P1S,S,92483,0.9892,0.9161,0.8383,1.0000,0.8475,-0.6580,-9.5256,-2.3818,0.0120,-0.0369,-0.0089
P1S,S,92503,0.9899,0.9090,0.8200,0.9945,0.8452,-0.7945,-9.5789,-2.4375,0.0264,-0.0498,-0.0199
P1S,S,92523,0.9899,0.9140,0.8217,1.0000,0.8220,-0.7460,-9.6274,-2.4729,0.0019,-0.0289,-0.0029
P1S,S,92543,0.9862,0.9107,0.8204,1.0000,0.8081,-0.7460,-9.5124,-2.4291,-0.0071,-0.0544,-0.0061
P1S,S,92563,0.9818,0.9144,0.8225,1.0000,0.7519,-0.8604,-9.4543,-2.4411,0.0093,-0.0278,-0.0045
P1S,S,92583,0.9896,0.9057,0.8204,1.0000,0.7988,-0.6317,-9.5579,-2.4339,0.0281,-0.0063,0.0057
P1S,S,92603,0.9903,0.9102,0.8387,1.0000,0.7361,-0.6640,-9.5825,-2.5190,0.0175,-0.0505,-0.0136
P1S,S,92623,0.9877,0.9115,0.8200,0.9784,0.7992,-0.7975,-9.5849,-2.4884,-0.0023,-0.0248,-0.0116
P1S,S,92643,0.9888,0.9223,0.7976,1.0000,0.7941,-0.7047,-9.4813,-2.4513,-0.0116,-0.0109,0.0011
P1S,S,92663,0.9892,0.9107,0.8221,1.0000,0.7458,-0.7191,-9.4831,-2.3926,0.0064,-0.0328,-0.0107
P1S,S,92683,0.9896,0.9157,0.8154,1.0000,0.7342,-0.7748,-9.6112,-2.4262,0.0179,-0.0373,-0.0119
P1S,S,92703,0.9881,0.9119,0.8196,1.0000,0.7468,-0.7413,-9.5849,-2.4136,0.0052,-0.0290,-0.0084
P1S,S,92723,0.9903,0.9119,0.7951,1.0000,0.7649,-0.7808,-9.5346,-2.4196,-0.0019,-0.0262,-0.0013
P1S,S,92743,0.9896,0.9115,0.8304,1.0000,0.7495,-0.7167,-9.4711,-2.4040,0.0008,-0.0192,-0.0028
P1S,S,92763,0.9885,0.9094,0.8038,0.9796,0.8076,-0.7664,-9.5621,-2.4076,0.0205,-0.0360,-0.0077
P1S,S,92783,0.9833,0.9194,0.8300,1.0000,0.8132,-0.7694,-9.5675,-2.4004,0.0037,-0.0254,-0.0035
P1S,S,92803,0.9881,0.9173,0.8134,0.9893,0.7941,-0.6999,-9.5903,-2.3812,-0.0009,-0.0338,-0.0033
P1S,S,92823,0.9899,0.9119,0.8188,1.0000,0.7681,-0.7934,-9.6172,-2.4477,-0.0265,-0.0425,0.0023
P1S,S,92843,0.9885,0.9119,0.7768,0.9874,0.7997,-0.8095,-9.5609,-2.4160,-0.0376,-0.0266,0.0016
P1S,S,92863,0.9903,0.9161,0.8021,1.0000,0.7988,-0.6616,-9.4513,-2.4208,-0.0509,-0.0492,-0.0032
P1S,S,92883,0.9896,0.9094,0.8316,1.0000,0.7765,-0.8005,-9.5040,-2.4106,-0.0440,-0.0817,-0.0004
P1S,S,92903,0.9899,0.9086,0.8437,1.0000,0.7505,-0.7383,-9.5549,-2.3417,-0.0296,-0.0421,0.0081
P1S,S,92923,0.9914,0.9177,0.8449,0.9725,0.7658,-0.6365,-9.4969,-2.2328,0.0015,-0.0324,0.0060
P1S,S,92943,0.9885,0.9061,0.8217,1.0000,0.7992,-0.6706,-9.5801,-2.3022,0.0290,-0.0288,-0.0025
P1S,S,92963,0.9851,0.9107,0.8183,0.9968,0.7742,-0.6425,-9.6525,-2.3507,0.0297,-0.0016,-0.0012
P1S,S,92983,0.9888,0.9123,0.7726,0.9919,0.8002,-0.6107,-9.5112,-2.3854,0.0151,-0.0137,-0.0079
P1S,S,93003,0.9914,0.9148,0.8400,1.0000,0.7588,-0.6993,-9.5615,-2.4148,0.0273,-0.0457,-0.0256
P1S,S,93023,0.9885,0.9161,0.8225,1.0000,0.7858,-0.8227,-9.6262,-2.4363,0.0097,-0.0262,-0.0249
P1S,S,93043,0.9892,0.9111,0.8208,1.0000,0.7402,-0.7712,-9.5298,-2.3681,0.0003,-0.0369,-0.0191
P1S,S,93063,0.9907,0.9123,0.8192,1.0000,0.8076,-0.8460,-9.5615,-2.3208,0.0096,-0.0470,-0.0129
P1S,S,93083,0.9851,0.9057,0.8217,1.0000,0.7672,-0.8430,-9.5998,-2.3812,0.0160,-0.0304,-0.0044
P1S,S,93103,0.9877,0.9098,0.8221,1.0000,0.8094,-0.7179,-9.5364,-2.3202,0.0085,-0.0292,0.0041
P1S,S,93123,0.9888,0.9161,0.8109,1.0000,0.7672,-0.7215,-9.6136,-2.3699,0.0163,-0.0446,0.0008
P1S,S,93143,0.9885,0.9098,0.8283,0.9971,0.7899,-0.7209,-9.5591,-2.3657,0.0089,-0.0560,-0.0075
P1S,S,93163,0.9896,0.9115,0.8138,1.0000,0.7384,-0.7544,-9.5412,-2.3884,0.0180,-0.0185,0.0009
P1S,S,93183,0.9888,0.9098,0.8246,1.0000,0.7709,-0.5772,-9.5471,-2.4046,0.0250,-0.0444,-0.0063
P1S,S,93203,0.9848,0.9102,0.8134,1.0000,0.7416,-0.8862,-9.5837,-2.4088,0.0184,-0.0544,-0.0144
P1S,S,93223,0.9951,0.9115,0.8271,1.0000,0.8350,-0.7281,-9.5531,-2.4046,0.0087,-0.0195,0.0001
P1S,S,93243,0.9881,0.9165,0.8121,1.0000,0.7305,-0.7652,-9.5549,-2.3860,0.0029,-0.0376,-0.0068
P1S,S,93263,0.9896,0.9102,0.8470,1.0000,0.7458,-0.8179,-9.5196,-2.3621,0.0152,-0.0180,-0.0037
P1S,S,93283,0.9851,0.9094,0.7930,1.0000,0.7421,-0.6377,-9.5933,-2.3926,0.0047,-0.0244,0.0008
P1S,S,93303,0.9885,0.9144,0.8541,1.0000,0.7644,-0.7101,-9.5112,-2.3812,0.0021,-0.0638,-0.0124
P1S,S,93323,0.9885,0.9107,0.8109,1.0000,0.7351,-0.7538,-9.5483,-2.4202,0.0193,-0.0446,-0.0101
P1S,S,93343,0.9888,0.9202,0.8138,1.0000,0.7872,-0.7993,-9.5507,-2.3812,0.0043,-0.0370,0.0017
P1S,S,93363,0.9885,0.9107,0.8138,0.9900,0.7695,-0.7413,-9.5543,-2.3316,0.0068,-0.0151,-0.0049
P1S,S,93383,0.9888,0.9136,0.8262,1.0000,0.7542,-0.5976,-9.5477,-2.3208,0.0099,-0.0318,-0.0089
P1S,S,93403,0.9844,0.9098,0.8200,1.0000,0.7839,-0.7945,-9.6316,-2.3687,0.0164,-0.0548,-0.0205
P1S,S,93423,0.9877,0.9157,0.7992,1.0000,0.7226,-0.8401,-9.5915,-2.3190,0.0155,-0.0193,-0.0096
P1S,S,93443,0.9873,0.9107,0.7743,0.9960,0.7992,-0.7838,-9.4998,-2.3920,0.0187,-0.0028,0.0051
P1S,S,93463,0.9848,0.9115,0.8067,1.0000,0.7820,-0.6958,-9.4771,-2.5124,0.0405,-0.0109,0.0020
P1S,S,93483,0.9933,0.9123,0.8237,1.0000,0.7895,-0.6820,-9.5184,-2.4962,0.0469,-0.0234,-0.0080
P1S,S,93503,0.9885,0.9090,0.7967,1.0000,0.7932,-0.6574,-9.6861,-2.5776,0.0172,-0.0433,-0.0085
P1S,S,93523,0.9933,0.9102,0.8470,0.9837,0.7937,-0.6802,-9.6376,-2.5291,-0.0272,-0.0161,-0.0120
P1S,S,93543,0.9881,0.9152,0.8013,0.9908,0.7704,-0.6233,-9.6082,-2.3405,-0.0248,-0.0020,-0.0063
P1S,S,93563,0.9840,0.9127,0.8454,1.0000,0.7807,-0.6946,-9.6220,-2.2747,-0.0272,-0.0321,-0.0099
P1S,S,93583,0.9877,0.9102,0.8250,0.9942,0.7672,-0.8574,-9.5388,-2.1627,-0.0252,-0.0400,-0.0208
P1S,S,93603,0.9888,0.9102,0.8163,1.0000,0.7263,-0.8011,-9.4909,-2.1693,-0.0031,-0.0434,-0.0321
P1S,S,93623,0.9885,0.9090,0.7842,1.0000,0.7351,-0.9203,-9.6244,-2.2316,0.0109,-0.0686,-0.0317
P1S,S,93643,0.9844,0.9107,0.8196,1.0000,0.7472,-0.9287,-9.5747,-2.2346,0.0254,-0.0598,-0.0208
P1S,S,93663,0.9873,0.9086,0.8192,1.0000,0.7644,-0.8862,-9.4777,-2.3262,0.0662,-0.0791,-0.0013
P1S,S,93683,0.9870,0.9111,0.8163,1.0000,0.7398,-0.8353,-9.5489,-2.4549,0.0926,-0.0614,0.0188
P1S,S,93703,0.9851,0.9136,0.8171,0.9728,0.7523,-0.7053,-9.5675,-2.5860,0.0827,-0.0497,0.0215
P1S,S,93723,0.9844,0.9082,0.8113,1.0000,0.7607,-0.6467,-9.5603,-2.7040,0.0429,-0.0432,0.0165
P1S,S,93743,0.9855,0.9069,0.8175,1.0000,0.8076,-0.6329,-9.4819,-2.7339,-0.0012,-0.0237,0.0107
P1S,S,93763,0.9862,0.9090,0.8088,1.0000,0.7481,-0.5389,-9.5088,-2.6184,-0.0422,-0.0065,0.0032
P1S,S,93783,0.9870,0.9132,0.8491,1.0000,0.7458,-0.5455,-9.4681,-2.4435,-0.0636,-0.0341,-0.0207
P1S,S,93803,0.9859,0.9086,0.8100,1.0000,0.7077,-0.7401,-9.5328,-2.3154,-0.0482,-0.0510,-0.0310
P1S,S,93823,0.9855,0.9082,0.8350,1.0000,0.8369,-0.8628,-9.5106,-2.2393,-0.0378,-0.0083,-0.0217
P1S,S,93843,0.9862,0.9094,0.7946,0.9844,0.7667,-0.7784,-9.5388,-2.1711,-0.0208,0.0029,-0.0093
P1S,S,93863,0.9885,0.9111,0.8200,1.0000,0.8048,-0.8113,-9.5549,-2.1813,-0.0103,-0.0281,-0.0188
P1S,S,93883,0.9859,0.9082,0.7992,0.9912,0.8290,-0.9802,-9.5992,-2.2639,-0.0127,-0.0234,-0.0230
P1S,S,93903,0.9833,0.9152,0.8113,1.0000,0.7231,-0.9634,-9.5016,-2.1914,-0.0007,-0.0193,-0.0175
P1S,S,93923,0.9877,0.9098,0.7759,0.9945,0.8071,-1.0131,-9.5801,-2.2501,0.0132,-0.0192,-0.0176
P1S,S,93943,0.9866,0.9102,0.8179,1.0000,0.7528,-1.0149,-9.5388,-2.1998,0.0288,-0.0253,-0.0068
P1S,S,93963,0.9851,0.9086,0.8192,1.0000,0.8094,-0.9502,-9.5513,-2.3202,0.0542,-0.0282,0.0091
P1S,S,93983,0.9870,0.9140,0.8134,1.0000,0.7486,-0.9107,-9.6064,-2.4495,0.0465,-0.0456,0.0266
P1S,S,94003,0.9859,0.9144,0.8179,1.0000,0.8164,-0.7856,-9.5645,-2.5968,0.0155,-0.0460,0.0468
P1S,S,94023,0.9881,0.9148,0.7855,1.0000,0.7546,-0.6838,-9.4328,-2.5627,-0.0087,-0.0254,0.0518
P1S,S,94043,0.9777,0.9061,0.8271,1.0000,0.7574,-0.5071,-9.5112,-2.5327,-0.0023,0.0116,0.0420
P1S,S,94063,0.9844,0.9086,0.7930,1.0000,0.7858,-0.4401,-9.5340,-2.5309,-0.0217,0.0155,0.0205
P1S,S,94083,0.9870,0.9098,0.8292,1.0000,0.7449,-0.4323,-9.5202,-2.4321,-0.0365,0.0203,-0.0047
P1S,S,94103,0.9877,0.9057,0.8042,1.0000,0.7704,-0.5970,-9.5537,-2.3154,-0.0421,-0.0095,-0.0262
P1S,S,94123,0.9881,0.9094,0.8138,1.0000,0.7932,-0.8616,-9.5633,-2.2465,-0.0420,0.0163,-0.0232
P1S,S,94143,0.9855,0.9077,0.8000,1.0000,0.8062,-0.7844,-9.5190,-2.1220,-0.0085,0.0564,-0.0097
P1S,S,94163,0.9848,0.9090,0.8487,1.0000,0.7560,-0.7658,-9.6968,-2.1956,0.0013,0.0252,-0.0105
P1S,S,94183,0.9844,0.9082,0.7897,1.0000,0.8039,-0.8197,-9.5962,-2.1220,-0.0089,-0.0365,-0.0216
P1S,S,94203,0.9848,0.9082,0.8583,1.0000,0.7918,-0.9460,-9.6208,-2.2124,0.0039,-0.0385,-0.0135
P1S,S,94223,0.9848,0.9094,0.7971,0.9971,0.7899,-0.7957,-9.6956,-2.2890,0.0137,-0.0113,0.0012
P1S,S,94243,0.9870,0.9061,0.7884,1.0000,0.7519,-0.7317,-9.5968,-2.2777,0.0107,-0.0234,0.0027
P1S,S,94263,0.9855,0.9069,0.8138,1.0000,0.7816,-0.7562,-9.5837,-2.3190,0.0129,-0.0388,-0.0025
P1S,S,94283,0.9892,0.9136,0.8150,1.0000,0.7282,-0.7047,-9.6316,-2.3747,0.0044,-0.0385,0.0104
P1S,S,94303,0.9870,0.9073,0.8495,1.0000,0.7509,-0.7335,-9.6100,-2.4154,-0.0001,-0.0302,0.0183
P1S,S,94323,0.9833,0.9077,0.8142,1.0000,0.8164,-0.5688,-9.5214,-2.3435,0.0115,-0.0334,0.0053
P1S,S,94343,0.9892,0.9086,0.8188,0.9923,0.8290,-0.6113,-9.6388,-2.3609,0.0152,-0.0561,-0.0075
P1S,S,94363,0.9848,0.9082,0.8092,1.0000,0.7472,-0.6694,-9.5825,-2.3615,0.0108,-0.0466,-0.0117
P1S,S,94383,0.9870,0.9094,0.8138,1.0000,0.7231,-0.6155,-9.5855,-2.3292,0.0093,-0.0332,-0.0180
P1S,S,94403,0.9862,0.9073,0.8038,1.0000,0.7407,-0.6718,-9.6178,-2.3908,-0.0039,-0.0525,-0.0230
P1S,S,94423,0.9870,0.9069,0.8404,1.0000,0.8201,-0.7568,-9.5825,-2.3244,-0.0076,-0.0508,-0.0242
P1S,S,94443,0.9877,0.9090,0.7988,1.0000,0.7788,-0.7526,-9.5238,-2.2573,0.0167,-0.0429,-0.0272
P1S,S,94463,0.9870,0.9015,0.8466,1.0000,0.7286,-0.7742,-9.5837,-2.3244,0.0222,-0.0536,-0.0285
P1S,S,94483,0.9866,0.9136,0.8125,0.9781,0.7663,-0.8317,-9.5729,-2.3339,0.0221,-0.0645,-0.0177
P1S,S,94503,0.9833,0.9065,0.8113,1.0000,0.7704,-0.8071,-9.5567,-2.3375,0.0203,-0.0316,-0.0189
P1S,S,94523,0.9859,0.9090,0.8154,1.0000,0.7128,-0.7496,-9.5657,-2.3525,0.0159,-0.0358,-0.0192
P1S,S,94543,0.9873,0.9069,0.7967,1.0000,0.7765,-0.7838,-9.5370,-2.3148,0.0039,-0.0480,-0.0241
P1S,S,94563,0.9848,0.9044,0.8179,1.0000,0.7189,-0.8263,-9.5723,-2.2974,0.0132,-0.0413,-0.0208
P1S,S,94583,0.9844,0.9107,0.8113,1.0000,0.7198,-0.8251,-9.6046,-2.2801,0.0036,-0.0572,-0.0193
P1S,S,94603,0.9870,0.9094,0.8121,1.0000,0.7546,-0.9029,-9.5214,-2.2471,0.0036,-0.0517,-0.0200
P1S,S,94623,0.9851,0.9077,0.8088,1.0000,0.7444,-0.8311,-9.6160,-2.2837,0.0073,-0.0449,-0.0069
P1S,S,94643,0.9881,0.9069,0.8084,1.0000,0.7407,-0.7562,-9.5136,-2.2507,-0.0029,-0.0640,-0.0160
P1S,S,94663,0.9855,0.9082,0.8000,1.0000,0.8094,-0.8269,-9.5681,-2.2848,0.0185,-0.0638,-0.0173
P1S,S,94683,0.9862,0.9086,0.8171,1.0000,0.7653,-0.6443,-9.5489,-2.2813,0.0220,-0.0691,-0.0207
P1S,S,94703,0.9844,0.9069,0.7988,1.0000,0.7755,-0.8095,-9.5669,-2.3459,0.0191,-0.0815,-0.0301
P1S,S,94723,0.9866,0.9077,0.8113,1.0000,0.8090,-0.7646,-9.5855,-2.3447,0.0181,-0.0749,-0.0216
P1S,S,94743,0.9855,0.9082,0.8146,0.9583,0.7495,-0.6227,-9.5633,-2.2848,0.0075,-0.1005,-0.0441
P1S,S,94763,0.9866,0.9082,0.8075,1.0000,0.7361,-0.7598,-9.5711,-2.2717,0.0020,-0.1589,-0.0705
P1S,S,94783,0.9877,0.9077,0.8200,1.0000,0.7969,-0.9400,-9.5208,-2.2334,0.0180,-0.1367,-0.0707
P1S,S,94803,0.9862,0.9102,0.7963,0.9893,0.7658,-0.8664,-9.5525,-2.2609,0.0276,-0.0983,-0.0477
P1S,S,94823,0.9844,0.9077,0.8167,1.0000,0.7505,-0.8454,-9.5507,-2.3034,0.0338,-0.1111,-0.0484
P1S,S,94843,0.9855,0.9073,0.8092,1.0000,0.7477,-0.9993,-9.6268,-2.3447,0.0470,-0.1110,-0.0333
P1S,S,94863,0.9866,0.9057,0.8616,1.0000,0.7268,-0.9059,-9.5813,-2.3998,0.0277,-0.0719,-0.0121
P1S,S,94883,0.9833,0.9057,0.8100,1.0000,0.7124,-0.9724,-9.5268,-2.3657,0.0192,-0.0570,0.0059
P1S,S,94903,0.9833,0.9077,0.8233,1.0000,0.7342,-0.8466,-9.5645,-2.3262,0.0184,-0.0069,0.0266
P1S,S,94923,0.9888,0.9065,0.8163,1.0000,0.7728,-0.7035,-9.5633,-2.3244,0.0185,-0.0133,0.0140
P1S,S,94943,0.9844,0.9065,0.8682,1.0000,0.7347,-0.8005,-9.4933,-2.3238,0.0193,-0.0207,0.0088
P1S,S,94963,0.9866,0.9140,0.8154,1.0000,0.7941,-0.8023,-9.5519,-2.3956,0.0253,0.0103,0.0127
P1S,S,94983,0.9836,0.9086,0.8354,1.0000,0.7282,-0.7814,-9.4843,-2.3818,0.0245,0.0035,0.0115
P1S,S,95003,0.9825,0.9073,0.7938,0.9725,0.7630,-0.7634,-9.5154,-2.4471,0.0364,0.0003,0.0007
P1S,S,95023,0.9866,0.9094,0.8063,1.0000,0.7570,-0.8059,-9.5669,-2.4938,-0.0017,-0.0310,-0.0073
P1S,S,95043,0.9811,0.9065,0.8304,1.0000,0.7899,-0.9502,-9.4436,-2.4046,0.0003,-0.0338,-0.0063
P1S,S,95063,0.9859,0.9044,0.8088,1.0000,0.7384,-0.8311,-9.6412,-2.4315,-0.0179,-0.0148,0.0060
P1S,S,95083,0.9844,0.9090,0.8134,1.0000,0.7825,-0.8496,-9.4472,-2.2495,-0.0193,-0.0381,-0.0099
P1S,S,95103,0.9840,0.9073,0.8055,0.9960,0.8067,-0.8544,-9.5974,-2.2094,0.0041,-0.0386,-0.0073
P1S,S,95123,0.9844,0.9069,0.8150,1.0000,0.7142,-0.8143,-9.6088,-2.2220,0.0024,-0.0360,0.0033
P1S,S,95143,0.9851,0.9065,0.7921,1.0000,0.7830,-0.8107,-9.5364,-2.2459,0.0107,-0.0305,0.0069
P1S,S,95163,0.9840,0.9069,0.8341,1.0000,0.7551,-0.7598,-9.6352,-2.3477,0.0292,-0.0420,0.0013
P1S,S,95183,0.9825,0.9065,0.7772,1.0000,0.8146,-0.8514,-9.5034,-2.4028,0.0244,-0.0382,-0.0035
P1S,S,95203,0.9829,0.9040,0.8079,1.0000,0.7194,-0.7287,-9.5759,-2.4375,0.0308,-0.0159,0.0069
P1S,S,95223,0.9836,0.9036,0.7676,1.0000,0.7435,-0.6754,-9.5603,-2.4447,0.0093,-0.0582,-0.0164
P1S,S,95243,0.9836,0.9061,0.8079,1.0000,0.7519,-0.8664,-9.5280,-2.4022,-0.0115,-0.0534,-0.0293
P1S,S,95263,0.9844,0.9082,0.8146,0.9770,0.7611,-0.7916,-9.5513,-2.3621,-0.0140,-0.0264,-0.0195
P1S,S,95283,0.9855,0.9073,0.8084,1.0000,0.7310,-0.8023,-9.5513,-2.3609,-0.0188,-0.0353,-0.0230
P1S,S,95303,0.9873,0.9094,0.7872,0.9986,0.7844,-0.8610,-9.5555,-2.3513,-0.0155,-0.0329,-0.0121
P1S,S,95323,0.9833,0.9140,0.8138,1.0000,0.7895,-0.7263,-9.5939,-2.2962,-0.0083,-0.0232,-0.0036
P1S,S,95343,0.9822,0.9040,0.8179,1.0000,0.7551,-0.7981,-9.6136,-2.2208,-0.0135,-0.0380,-0.0047
P1S,S,95363,0.9833,0.9040,0.8071,1.0000,0.7379,-0.7874,-9.5136,-2.1579,0.0083,-0.0207,-0.0031
P1S,S,95383,0.9870,0.9082,0.8466,1.0000,0.7593,-0.7233,-9.6160,-2.2363,0.0189,-0.0088,-0.0115
P1S,S,95403,0.9851,0.9077,0.7705,0.9900,0.7899,-0.8155,-9.5903,-2.2633,0.0135,-0.0358,-0.0292
P1S,S,95423,0.9851,0.9115,0.8150,1.0000,0.7542,-0.9071,-9.5567,-2.2405,0.0191,-0.0480,-0.0286
P1S,S,95443,0.9855,0.9069,0.7897,1.0000,0.7440,-0.9496,-9.5891,-2.2974,0.0159,-0.0648,-0.0257
P1S,S,95463,0.9840,0.9077,0.8188,1.0000,0.7500,-1.0065,-9.5915,-2.2980,0.0159,-0.0679,-0.0192
P1S,S,95483,0.9829,0.9057,0.8079,1.0000,0.7337,-0.9077,-9.5705,-2.2938,0.0196,-0.0446,-0.0021
P1S,S,95503,0.9833,0.9057,0.8104,1.0000,0.7481,-0.7311,-9.5759,-2.3645,0.0199,-0.0769,-0.0116
P1S,S,95523,0.9833,0.9069,0.8129,0.9889,0.7858,-0.8772,-9.5477,-2.3549,0.0119,-0.0898,-0.0151
P1S,S,95543,0.9822,0.9077,0.8346,1.0000,0.7495,-0.8742,-9.4951,-2.3489,0.0061,-0.0386,-0.0039
P1S,S,95563,0.9818,0.9069,0.8009,0.9908,0.7913,-0.6167,-9.5376,-2.3387,0.0260,-0.0445,-0.0108
P1S,S,95583,0.9848,0.9082,0.8063,0.9994,0.7899,-0.8263,-9.6423,-2.4040,0.0167,-0.0703,-0.0253
P1S,S,95603,0.9848,0.9065,0.7946,0.9945,0.7927,-0.9077,-9.5477,-2.3633,-0.0073,-0.0305,-0.0131
P1S,S,95623,0.9822,0.9044,0.8146,1.0000,0.7574,-0.8610,-9.5501,-2.2926,0.0025,-0.0139,0.0001
P1S,S,95643,0.9833,0.9086,0.8188,1.0000,0.7997,-0.9053,-9.5633,-2.2848,0.0121,-0.0135,0.0011
P1S,S,95663,0.9811,0.9082,0.8104,1.0000,0.7142,-0.8005,-9.6016,-2.2597,0.0111,-0.0169,-0.0027
P1S,S,95683,0.9866,0.9032,0.8125,1.0000,0.8252,-0.9179,-9.6214,-2.2603,0.0053,-0.0497,-0.0080
P1S,S,95703,0.9814,0.9073,0.8063,1.0000,0.7305,-0.9406,-9.5442,-2.2783,0.0093,-0.0306,0.0032
P1S,S,95723,0.9851,0.9052,0.8196,0.9957,0.7653,-0.8921,-9.4951,-2.3058,0.0029,-0.0180,0.0167
P1S,S,95743,0.9851,0.9090,0.8163,0.9938,0.7630,-0.8107,-9.4975,-2.3112,0.0246,-0.0237,0.0101
P1S,S,95763,0.9840,0.9082,0.8113,1.0000,0.7365,-0.7993,-9.5986,-2.4064,0.0292,-0.0258,0.0019
P1S,S,95783,0.9818,0.9077,0.7971,0.9994,0.7918,-0.8107,-9.5771,-2.4297,0.0041,-0.0189,0.0025
P1S,S,95803,0.9862,0.9065,0.8262,1.0000,0.7584,-0.7484,-9.5322,-2.3830,-0.0096,-0.0024,0.0124
P1S,S,95823,0.9870,0.9082,0.8096,1.0000,0.7793,-0.6766,-9.5244,-2.3429,0.0012,-0.0269,0.0064
P1S,S,95843,0.9825,0.9073,0.8067,1.0000,0.7142,-0.8472,-9.5292,-2.3513,-0.0003,-0.0417,-0.0083
P1S,S,95863,0.9873,0.9165,0.8146,1.0000,0.8322,-0.8053,-9.5693,-2.3298,-0.0009,-0.0121,-0.0023
P1S,S,95883,0.9833,0.9065,0.8104,1.0000,0.7189,-0.7550,-9.5160,-2.2759,-0.0132,-0.0245,-0.0059
P1S,S,95903,0.9851,0.9086,0.8092,0.9811,0.7593,-0.8730,-9.6388,-2.3070,-0.0076,-0.0388,-0.0143
P1S,S,95923,0.9814,0.9065,0.8104,1.0000,0.7923,-0.9059,-9.5849,-2.2561,-0.0193,-0.0325,-0.0076
P1S,S,95943,0.9759,0.9069,0.8104,1.0000,0.8043,-0.8760,-9.5412,-2.1837,0.0065,-0.0281,-0.0021
P1S,S,95963,0.9848,0.9069,0.8416,1.0000,0.7184,-0.8197,-9.6220,-2.2310,0.0135,-0.0396,-0.0013
P1S,S,95983,0.9859,0.9077,0.8287,1.0000,0.7138,-0.8718,-9.6334,-2.2447,0.0215,-0.0398,-0.0016
P1S,S,96003,0.9855,0.9090,0.8134,0.9923,0.7978,-0.8574,-9.5615,-2.3016,0.0069,-0.0278,0.0071
P1S,S,96023,0.9788,0.9090,0.8167,1.0000,0.7672,-0.8287,-9.5615,-2.3160,0.0171,-0.0208,0.0065
P1S,S,96043,0.9825,0.9040,0.8154,1.0000,0.8053,-0.7808,-9.5166,-2.3345,0.0161,-0.0216,0.0039
P1S,S,96063,0.9851,0.9040,0.8075,1.0000,0.7305,-0.6946,-9.5442,-2.3860,0.0273,-0.0437,-0.0057
P1S,S,96083,0.9822,0.9069,0.7826,1.0000,0.7700,-0.8137,-9.5633,-2.4214,0.0137,-0.0368,-0.0144
P1S,S,96103,0.9822,0.9069,0.8225,1.0000,0.7240,-0.7880,-9.5807,-2.4531,0.0069,-0.0233,-0.0049
P1S,S,96123,0.9851,0.9052,0.8113,0.9979,0.8025,-0.7490,-9.4657,-2.3651,0.0035,-0.0329,-0.0148
P1S,S,96143,0.9855,0.9057,0.8096,1.0000,0.7166,-0.8484,-9.6022,-2.3795,0.0023,-0.0301,-0.0093
P1S,S,96163,0.9851,0.9057,0.8379,1.0000,0.7602,-0.8317,-9.5675,-2.3130,-0.0025,-0.0203,-0.0025
P1S,S,96183,0.9825,0.9077,0.8113,1.0000,0.7570,-0.8736,-9.5927,-2.2262,-0.0099,-0.0021,-0.0047
P1S,S,96203,0.9822,0.9061,0.8129,1.0000,0.7969,-0.7957,-9.5525,-2.2369,-0.0116,-0.0073,-0.0088
P1S,S,96223,0.9851,0.9057,0.7963,1.0000,0.7463,-0.8383,-9.5944,-2.1621,-0.0065,-0.0416,-0.0224
P1S,S,96243,0.9814,0.9065,0.8254,1.0000,0.7282,-1.0736,-9.6070,-2.2250,0.0055,-0.0382,-0.0112
P1S,S,96263,0.9818,0.9065,0.8063,1.0000,0.7811,-0.7993,-9.5657,-2.1531,0.0163,-0.0272,0.0043
P1S,S,96283,0.9836,0.9061,0.8179,1.0000,0.7672,-0.9011,-9.6226,-2.2441,0.0250,-0.0565,-0.0017
P1S,S,96303,0.9822,0.9086,0.8154,1.0000,0.8341,-0.9191,-9.5879,-2.3154,0.0224,-0.0342,0.0069
P1S,S,96323,0.9836,0.9048,0.8163,0.9975,0.8313,-0.8239,-9.5076,-2.3381,0.0155,-0.0104,0.0144
P1S,S,96343,0.9840,0.9065,0.7797,0.9979,0.7574,-0.7580,-9.5861,-2.3459,0.0240,-0.0128,0.0076
P1S,S,96363,0.9844,0.9057,0.8179,1.0000,0.7584,-0.8011,-9.5795,-2.3531,0.0097,-0.0265,-0.0003
