person_id,label,timestamp,flex1,flex2,flex3,flex4,flex5,ax,ay,az,gx,gy,gz
P1V,V,375943,0.9913,0.9931,0.9856,0.9786,1.0000,-1.4592,-9.0867,-3.6955,0.0230,-0.0145,0.0105
P1V,V,375963,0.9917,0.9931,0.9846,0.9925,0.9633,-1.5616,-9.1035,-3.7308,0.0071,-0.0735,-0.0172
P1V,V,375983,0.9913,0.9919,0.9865,0.9891,0.9340,-1.7160,-9.0017,-3.7308,0.0156,-0.0810,-0.0167
P1V,V,376003,0.9883,0.9881,0.9836,0.9911,1.0000,-1.7472,-9.1107,-3.7919,0.0089,-0.0097,0.0217
P1V,V,376023,0.9906,0.9902,0.9933,0.9814,1.0000,-1.4544,-9.0394,-3.7656,0.0132,-0.0097,0.0337
P1V,V,376043,0.9906,0.9860,0.9846,0.9657,1.0000,-1.4113,-9.1136,-3.8632,0.0031,-0.0693,0.0092
P1V,V,376063,0.9921,0.9935,0.9831,1.0000,0.9725,-1.5430,-8.9436,-3.8183,0.0000,-0.0709,-0.0059
P1V,V,376083,0.9894,0.9893,0.9851,1.0000,0.9156,-1.4658,-9.0256,-3.7883,0.0136,-0.0424,0.0028
P1V,V,376103,0.9909,0.9872,0.9904,0.9922,0.9491,-1.3448,-9.1113,-3.7608,0.0163,-0.0536,-0.0040
P1V,V,376123,0.9909,0.9872,0.9972,0.9936,1.0000,-1.3406,-9.0663,-3.7404,0.0260,-0.0606,-0.0192
P1V,V,376143,0.9898,0.9877,0.9797,1.0000,1.0000,-1.4532,-9.1256,-3.7973,0.0288,-0.0538,-0.0280
P1V,V,376163,0.9894,0.9902,0.9773,0.9939,0.9468,-1.5867,-9.0951,-3.8440,0.0161,-0.0161,-0.0077
P1V,V,376183,0.9909,0.9902,0.9696,1.0000,0.9684,-1.5388,-9.0867,-3.8332,0.0001,0.0004,0.0000
P1V,V,376203,0.9898,0.9872,0.9541,0.9835,0.9083,-1.5394,-9.0119,-3.7482,0.0020,-0.0225,-0.0175
P1V,V,376223,0.9891,0.9872,0.9885,0.9859,0.9161,-1.6262,-9.0634,-3.7757,0.0173,-0.0408,-0.0197
P1V,V,376243,0.9842,0.9847,0.9860,0.9932,0.9422,-1.6591,-9.0568,-3.7482,0.0124,-0.0222,0.0033
P1V,V,376263,0.9879,0.9868,0.9880,0.9978,1.0000,-1.5059,-9.0747,-3.7183,0.0104,-0.0302,0.0028
P1V,V,376283,0.9891,0.9877,0.9788,0.9925,1.0000,-1.5107,-9.1041,-3.7356,0.0153,-0.0590,-0.0161
P1V,V,376303,0.9906,0.9868,0.9783,1.0000,0.9941,-1.6280,-9.0604,-3.7392,0.0121,-0.0440,-0.0105
P1V,V,376323,0.9898,0.9927,0.9686,0.9782,0.9473,-1.5687,-9.1119,-3.8320,0.0261,-0.0095,0.0035
P1V,V,376343,0.9909,0.9868,0.9846,1.0000,1.0000,-1.4220,-9.0454,-3.8183,0.0105,-0.0212,-0.0013
P1V,V,376363,0.9876,0.9919,0.9676,0.9828,0.9560,-1.5999,-9.0238,-3.8296,0.0031,-0.0488,-0.0005
P1V,V,376383,0.9909,0.9877,0.9885,0.9831,0.9445,-1.4705,-9.0867,-3.7973,0.0228,-0.0408,-0.0052
P1V,V,376403,0.9906,0.9877,0.9851,0.9974,0.9968,-1.4807,-9.0825,-3.7973,-0.0033,-0.0442,-0.0176
P1V,V,376423,0.9883,0.9881,1.0000,0.9946,1.0000,-1.6244,-9.0681,-3.7973,0.0001,-0.0248,-0.0141
P1V,V,376443,0.9861,0.9868,0.9856,1.0000,0.9184,-1.5256,-9.0053,-3.7440,0.0040,-0.0048,0.0009
P1V,V,376463,0.9894,0.9835,0.9739,0.9706,1.0000,-1.5107,-9.0550,-3.7267,0.0085,-0.0573,-0.0108
P1V,V,376483,0.9876,0.9847,0.9836,0.9936,0.9408,-1.6526,-9.0861,-3.7578,0.0228,-0.0441,-0.0079
P1V,V,376503,0.9891,0.9864,0.9836,0.9695,0.9271,-1.5196,-9.1328,-3.7530,0.0133,-0.0185,0.0007
P1V,V,376523,0.9894,0.9843,0.9783,1.0000,0.9019,-1.6160,-9.0975,-3.7338,0.0107,-0.0108,0.0029
P1V,V,376543,0.9902,0.9856,0.9725,0.9859,0.9207,-1.4993,-9.0957,-3.7542,0.0027,-0.0203,-0.0005
P1V,V,376563,0.9891,0.9843,0.9807,1.0000,0.9684,-1.5777,-9.0969,-3.7740,-0.0144,-0.0488,-0.0079
P1V,V,376583,0.9894,0.9906,0.9797,1.0000,0.9330,-1.5939,-9.0723,-3.7787,-0.0196,-0.0456,-0.0121
P1V,V,376603,0.9894,0.9868,0.9807,0.9995,0.9326,-1.5879,-8.9771,-3.7422,-0.0256,-0.0398,-0.0041
P1V,V,376623,0.9891,0.9881,0.9807,0.9950,0.9101,-1.5969,-9.0023,-3.7243,-0.0057,-0.0316,-0.0024
P1V,V,376643,0.9902,0.9772,0.9793,1.0000,0.9436,-1.5693,-9.0789,-3.7434,0.0157,-0.0099,0.0043
P1V,V,376663,0.9865,0.9843,0.9841,0.9856,0.9298,-1.5580,-9.0807,-3.7757,0.0120,0.0041,0.0180
P1V,V,385383,0.7278,0.3814,0.0000,0.0000,0.7872,0.5670,-9.6825,-1.9010,0.0167,-0.0406,0.0101
P1V,V,385423,0.7293,0.3814,0.0000,0.0000,0.7853,0.5000,-9.6364,-1.8328,-0.0228,-0.0408,-0.0183
P1V,V,385443,0.7297,0.3805,0.0000,0.0000,0.7454,0.3353,-9.7208,-1.7921,-0.0065,-0.0249,-0.0253
P1V,V,385463,0.7319,0.3784,0.0000,0.0000,0.7050,0.4341,-9.6729,-1.7597,-0.0073,0.0097,-0.0334
P1V,V,385483,0.7334,0.3847,0.0000,0.0000,0.7257,0.3036,-9.6429,-1.7154,0.0085,-0.0376,-0.0382
P1V,V,385503,0.7338,0.3830,0.0000,0.0000,0.7518,0.1401,-9.6657,-1.7418,0.0354,-0.0246,-0.0344
P1V,V,385523,0.7341,0.3839,0.0000,0.0000,0.7243,0.2090,-9.7370,-1.8082,0.0209,-0.0199,-0.0171
P1V,V,385543,0.7315,0.3805,0.0000,0.0000,0.7899,0.1138,-9.5382,-1.8142,0.0314,-0.0286,-0.0063
P1V,V,385563,0.7379,0.3797,0.0000,0.0000,0.7835,0.3485,-9.6944,-1.9460,0.0301,-0.0200,0.0013
P1V,V,385583,0.7398,0.3830,0.0000,0.0000,0.6972,0.3826,-9.6489,-2.0382,0.0184,-0.0593,0.0055
P1V,V,385603,0.7360,0.3759,0.0000,0.0000,0.8353,0.3239,-9.6423,-2.0430,0.0044,-0.0534,-0.0029
P1V,V,385623,0.7360,0.3830,0.0000,0.0000,0.7918,0.4036,-9.6657,-2.0238,-0.0141,-0.0322,-0.0015
P1V,V,385643,0.7431,0.3830,0.0000,0.0000,0.7142,0.4610,-9.5795,-1.9112,-0.0207,-0.0280,0.0005
P1V,V,385663,0.7409,0.3835,0.0000,0.0000,0.7349,0.4856,-9.7651,-1.8172,0.0075,-0.0598,-0.0020
P1V,V,385683,0.7386,0.3851,0.0000,0.0000,0.7826,0.2629,-9.7507,-1.8076,-0.0212,-0.0350,-0.0155
P1V,V,385703,0.7416,0.3822,0.0000,0.0000,0.8248,0.3167,-9.6352,-1.7166,-0.0325,0.0056,-0.0057
P1V,V,385723,0.7409,0.3830,0.0000,0.0000,0.8170,0.4113,-9.5723,-1.6645,-0.0085,-0.0302,-0.0100
P1V,V,385743,0.7439,0.3797,0.0000,0.0000,0.7486,0.2748,-9.7190,-1.7059,0.0256,-0.0683,-0.0192
P1V,V,385763,0.7364,0.3843,0.0000,0.0000,0.8450,0.2150,-9.7465,-1.7885,0.0061,-0.0218,-0.0177
P1V,V,385783,0.7345,0.3877,0.0000,0.0000,0.8174,0.2892,-9.6346,-1.7520,0.0041,0.0080,0.0012
P1V,V,385803,0.7326,0.3914,0.0000,0.0000,0.8156,0.2497,-9.5765,-1.6897,0.0306,0.0001,0.0108
P1V,V,385823,0.7338,0.3847,0.0000,0.0000,0.8055,0.4089,-9.7100,-1.7406,0.0581,-0.0218,-0.0096
P1V,V,385843,0.7315,0.3868,0.0000,0.0000,0.7417,0.3299,-9.7525,-1.8609,0.0328,-0.0590,-0.0095
P1V,V,385863,0.7334,0.3868,0.0000,0.0000,0.8216,0.3239,-9.6004,-1.8214,0.0392,-0.0179,0.0029
P1V,V,385883,0.7349,0.3872,0.0000,0.0000,0.8073,0.4772,-9.7555,-1.8639,0.0589,-0.0344,-0.0029
P1V,V,385903,0.7394,0.3860,0.0000,0.0000,0.8560,0.3754,-9.7142,-1.8549,0.0532,-0.0866,-0.0120
P1V,V,385923,0.7390,0.3864,0.0000,0.0000,0.8289,0.1796,-9.6178,-1.8502,0.0634,-0.0356,0.0081
P1V,V,385943,0.7431,0.3919,0.0000,0.0000,0.7500,0.4946,-9.7405,-1.9118,0.0557,0.0004,0.0104
P1V,V,385963,0.7435,0.3881,0.0000,0.0000,0.8560,0.5952,-9.6298,-1.9939,0.0199,-0.0484,-0.0080
P1V,V,385983,0.7431,0.3856,0.0000,0.0000,0.8032,0.2952,-9.6471,-1.9603,0.0460,-0.0509,-0.0281
P1V,V,386003,0.7420,0.3847,0.0000,0.0000,0.8408,0.2072,-9.6376,-1.8981,0.0485,-0.0001,-0.0191
P1V,V,386023,0.7424,0.3860,0.0000,0.0000,0.8216,0.4078,-9.6855,-1.8837,0.0416,0.0060,-0.0076
P1V,V,386043,0.7431,0.3822,0.0000,0.0000,0.8633,0.4700,-9.8310,-1.9651,0.0253,-0.0196,-0.0049
P1V,V,386063,0.7427,0.3839,0.0000,0.0000,0.8358,0.3545,-9.7938,-2.0190,-0.0329,-0.0045,0.0075
P1V,V,386083,0.7442,0.3868,0.0000,0.0000,0.7395,0.3856,-9.5986,-1.9819,-0.0605,-0.0105,0.0088
P1V,V,386103,0.7431,0.3872,0.0000,0.0000,0.8321,0.3137,-9.5238,-1.9292,-0.0334,-0.0221,0.0047
P1V,V,386123,0.7439,0.3877,0.0000,0.0000,0.7339,0.3257,-9.6986,-1.8178,-0.0009,-0.0336,0.0023
P1V,V,386143,0.7412,0.3889,0.0000,0.0000,0.7569,0.2784,-9.7262,-1.8376,-0.0085,-0.0169,-0.0023
P1V,V,386163,0.7435,0.3872,0.0000,0.0000,0.7275,0.4197,-9.6681,-1.8370,-0.0229,-0.0087,0.0119
P1V,V,386183,0.7435,0.3877,0.0000,0.0000,0.8193,0.5053,-9.6879,-1.7789,-0.0061,-0.0301,-0.0052
P1V,V,386203,0.7442,0.3881,0.0000,0.0000,0.7624,0.4089,-9.5094,-1.8070,-0.0029,-0.0544,-0.0228
P1V,V,386223,0.7368,0.3885,0.0000,0.0000,0.8124,0.3269,-9.6250,-1.8118,0.0388,-0.0465,-0.0204
P1V,V,386243,0.7457,0.3898,0.0000,0.0000,0.7317,0.3143,-9.7459,-1.8531,0.0313,-0.0225,-0.0204
P1V,V,386263,0.7450,0.3881,0.0000,0.0000,0.7463,0.2682,-9.7244,-1.8777,0.0309,-0.0073,-0.0043
P1V,V,386283,0.7487,0.3931,0.0000,0.0000,0.7390,0.3054,-9.8058,-1.9400,-0.0124,-0.0032,-0.0039
P1V,V,386303,0.7558,0.3935,0.0000,0.0000,0.7417,0.2587,-9.6106,-1.8280,-0.0356,0.0096,0.0101
P1V,V,386323,0.7532,0.3935,0.0000,0.0000,0.8069,0.3605,-9.5873,-1.8154,-0.0119,-0.0262,0.0023
P1V,V,386343,0.7525,0.3965,0.0000,0.0000,0.7528,0.3287,-9.6489,-1.7903,0.0125,-0.0480,0.0044
P1V,V,386363,0.7569,0.3981,0.0000,0.0000,0.7560,0.3862,-9.5927,-1.7729,0.0080,-0.0434,-0.0031
P1V,V,386383,0.7562,0.3939,0.0000,0.0000,0.8491,0.4419,-9.6555,-1.8017,0.0317,-0.0557,-0.0131
P1V,V,386403,0.7566,0.3906,0.0000,0.0000,0.7367,0.3293,-9.6304,-1.8064,0.0544,-0.0420,-0.0195
P1V,V,386423,0.7540,0.3948,0.0000,0.0000,0.7243,0.3826,-9.7082,-1.8070,0.0746,-0.0021,-0.0079
P1V,V,386443,0.7495,0.3898,0.0000,0.0000,0.7303,0.5437,-9.7591,-1.9477,0.0606,-0.0212,-0.0119
P1V,V,386463,0.7536,0.3965,0.0000,0.0000,0.7523,0.3227,-9.6471,-2.0208,0.0199,-0.0552,-0.0352
P1V,V,386483,0.7558,0.3927,0.0000,0.0000,0.7876,0.2287,-9.6932,-1.9986,0.0096,-0.0205,-0.0216
P1V,V,386503,0.7521,0.3939,0.0000,0.0000,0.7197,0.3102,-9.6058,-1.9507,-0.0148,-0.0211,-0.0048
P1V,V,386523,0.7540,0.3952,0.0000,0.0000,0.8578,0.3479,-9.5699,-1.8579,0.0096,-0.0382,-0.0037
P1V,V,386543,0.7536,0.3906,0.0000,0.0000,0.7193,0.3209,-9.7495,-1.8094,0.0124,-0.0529,-0.0112
P1V,V,386563,0.7532,0.3902,0.0000,0.0000,0.7248,0.2431,-9.6741,-1.7897,-0.0008,-0.0389,-0.0088
P1V,V,386583,0.7532,0.3956,0.0000,0.0000,0.7326,0.3054,-9.6166,-1.7813,0.0112,-0.0145,0.0008
P1V,V,386603,0.7536,0.3919,0.0000,0.0000,0.7528,0.3137,-9.6352,-1.7963,0.0344,-0.0361,-0.0017
P1V,V,386623,0.7525,0.3906,0.0000,0.0000,0.7532,0.3137,-9.6615,-1.8202,0.0525,-0.0236,-0.0017
P1V,V,386643,0.7543,0.3914,0.0000,0.0000,0.7417,0.4107,-9.7753,-1.8885,0.0314,-0.0414,-0.0028
P1V,V,386663,0.7536,0.3969,0.0000,0.0000,0.8317,0.3018,-9.6513,-1.9639,-0.0031,-0.0593,-0.0107
P1V,V,386683,0.7521,0.3935,0.0000,0.0000,0.7179,0.2269,-9.6220,-1.9831,0.0005,-0.0309,-0.0015
P1V,V,386703,0.7532,0.3931,0.0000,0.0000,0.7473,0.3006,-9.6166,-1.9406,0.0192,-0.0023,0.0104
P1V,V,386723,0.7551,0.3822,0.0000,0.0000,0.8170,0.4107,-9.7226,-1.8747,0.0248,-0.0208,0.0020
P1V,V,386743,0.7528,0.3944,0.0000,0.0000,0.7463,0.4173,-9.7693,-1.9286,0.0099,-0.0552,-0.0096
P1V,V,386763,0.7532,0.3948,0.0000,0.0000,0.8014,0.3060,-9.6537,-1.9711,-0.0204,-0.0600,-0.0033
P1V,V,386783,0.7536,0.3893,0.0000,0.0000,0.7317,0.3533,-9.5591,-1.9519,-0.0117,-0.0358,0.0056
P1V,V,386803,0.7543,0.3952,0.0000,0.0000,0.8358,0.3622,-9.6609,-1.8939,0.0362,-0.0217,0.0079
P1V,V,386823,0.7532,0.3923,0.0000,0.0000,0.7977,0.4107,-9.6801,-1.8843,0.0245,-0.0378,-0.0019
P1V,V,386843,0.7532,0.3914,0.0000,0.0000,0.7596,0.3503,-9.6489,-1.9058,0.0049,-0.0549,-0.0083
P1V,V,386863,0.7525,0.3898,0.0000,0.0000,0.7138,0.3143,-9.6944,-1.9196,0.0028,-0.0364,-0.0081
P1V,V,386883,0.7528,0.3910,0.0000,0.0000,0.8133,0.3581,-9.6172,-1.8573,0.0091,-0.0160,-0.0007
P1V,V,386903,0.7540,0.3931,0.0000,0.0000,0.7867,0.3449,-9.6250,-1.8436,0.0305,-0.0333,-0.0040
P1V,V,386923,0.7525,0.3906,0.0000,0.0000,0.7780,0.3203,-9.7759,-1.8591,0.0304,-0.0322,-0.0001
P1V,V,386943,0.7469,0.3923,0.0000,0.0000,0.8129,0.3994,-9.7411,-1.8771,0.0087,-0.0297,-0.0024
P1V,V,386963,0.7536,0.3902,0.0000,0.0000,0.7844,0.2940,-9.6364,-1.9052,0.0000,-0.0617,-0.0084
P1V,V,386983,0.7540,0.3939,0.0000,0.0000,0.8051,0.2605,-9.6082,-1.9088,0.0179,-0.0334,-0.0020
P1V,V,387003,0.7483,0.3881,0.0000,0.0000,0.8096,0.3395,-9.6639,-1.9166,0.0357,-0.0075,0.0084
P1V,V,387023,0.7528,0.3910,0.0000,0.0000,0.7899,0.4676,-9.7495,-1.9483,0.0274,-0.0317,0.0067
P1V,V,387043,0.7528,0.3935,0.0000,0.0000,0.8330,0.3341,-9.6561,-1.9477,0.0207,-0.0421,-0.0056
P1V,V,387063,0.7517,0.3927,0.0000,0.0000,0.7583,0.3527,-9.6813,-1.9046,0.0205,-0.0221,-0.0001
P1V,V,387083,0.7536,0.3868,0.0000,0.0000,0.7170,0.4048,-9.7094,-1.9657,-0.0069,-0.0215,0.0045
P1V,V,387103,0.7517,0.3889,0.0000,0.0000,0.7601,0.3676,-9.4681,-1.8957,-0.0137,-0.0330,-0.0039
P1V,V,387123,0.7483,0.3872,0.0000,0.0000,0.7651,0.3646,-9.7579,-1.9436,-0.0041,-0.0036,0.0048
P1V,V,387143,0.7554,0.3881,0.0000,0.0000,0.8330,0.4006,-9.6316,-1.9112,-0.0398,-0.0296,-0.0131
P1V,V,387163,0.7532,0.3877,0.0000,0.0000,0.7895,0.2281,-9.6274,-1.9106,-0.0191,-0.0250,0.0055
P1V,V,387183,0.7569,0.3860,0.0000,0.0000,0.7936,0.3605,-9.6705,-1.9202,-0.0084,-0.0009,0.0135
P1V,V,387203,0.7573,0.3818,0.0000,0.0000,0.7486,0.3299,-9.6699,-1.8064,0.0107,-0.0333,0.0141
P1V,V,387223,0.7573,0.3847,0.0000,0.0000,0.7436,0.2167,-9.5921,-1.7999,0.0294,-0.0336,0.0192
P1V,V,387243,0.7562,0.3868,0.0000,0.0000,0.8005,0.3096,-9.7483,-1.8376,0.0207,0.0104,0.0160
P1V,V,387263,0.7592,0.3877,0.0000,0.0000,0.8418,0.5197,-9.6202,-1.7909,0.0068,0.0108,0.0131
P1V,V,387283,0.7581,0.3889,0.0000,0.0000,0.7541,0.4592,-9.7010,-1.8490,0.0220,-0.0276,0.0112
P1V,V,387303,0.7569,0.3877,0.0000,0.0000,0.8028,0.3808,-9.6076,-1.8789,0.0340,-0.0274,0.0011
P1V,V,387323,0.7577,0.3797,0.0000,0.0000,0.8239,0.4125,-9.6286,-1.8933,0.0478,-0.0133,-0.0144
P1V,V,387343,0.7562,0.3856,0.0000,0.0000,0.7358,0.3616,-9.7735,-1.9507,0.0416,-0.0152,-0.0129
P1V,V,387363,0.7573,0.3864,0.0000,0.0000,0.8344,0.3575,-9.7387,-2.0022,-0.0015,-0.0164,-0.0044
P1V,V,387383,0.7569,0.3864,0.0000,0.0000,0.7220,0.3143,-9.5992,-1.9561,0.0008,-0.0350,-0.0004
P1V,V,387403,0.7603,0.3847,0.0000,0.0000,0.6982,0.3760,-9.6603,-1.9957,0.0067,-0.0466,-0.0009
P1V,V,387423,0.7562,0.3847,0.0000,0.0000,0.7537,0.2641,-9.5537,-1.9160,0.0228,-0.0620,-0.0029
P1V,V,387443,0.7547,0.3839,0.0000,0.0000,0.7950,0.3850,-9.7477,-1.8531,0.0316,-0.0277,0.0009
P1V,V,387463,0.7540,0.3860,0.0000,0.0000,0.7651,0.5006,-9.7807,-1.8651,0.0028,-0.0406,-0.0063
P1V,V,387483,0.7536,0.3872,0.0000,0.0000,0.7413,0.3114,-9.5513,-1.8789,-0.0151,-0.0670,-0.0133
P1V,V,387503,0.7547,0.3931,0.0000,0.0000,0.7849,0.3473,-9.6040,-1.8747,0.0252,-0.0437,-0.0073
P1V,V,387523,0.7517,0.3835,0.0000,0.0000,0.7037,0.3131,-9.6950,-1.8873,0.0249,-0.0125,-0.0036
P1V,V,387543,0.7528,0.3856,0.0000,0.0000,0.7417,0.3988,-9.6873,-1.8268,0.0422,-0.0049,0.0055
P1V,V,387563,0.7513,0.3851,0.0000,0.0000,0.7454,0.4736,-9.7920,-1.9154,0.0218,-0.0358,-0.0041
P1V,V,387583,0.7506,0.3872,0.0000,0.0000,0.7358,0.3281,-9.5873,-2.0262,-0.0012,-0.0509,-0.0120
P1V,V,387603,0.7495,0.3877,0.0000,0.0000,0.7275,0.2754,-9.6334,-2.0022,0.0049,-0.0236,-0.0068
P1V,V,387623,0.7427,0.3872,0.0000,0.0000,0.8087,0.2910,-9.5873,-1.9657,0.0007,-0.0176,-0.0045
P1V,V,387643,0.7476,0.3830,0.0000,0.0000,0.7055,0.4024,-9.6675,-1.8244,0.0349,-0.0140,0.0041
P1V,V,387663,0.7476,0.3864,0.0000,0.0000,0.7624,0.4137,-9.8274,-1.8406,0.0233,-0.0340,0.0016
P1V,V,387683,0.7461,0.3877,0.0000,0.0000,0.6899,0.2617,-9.6028,-1.8454,0.0043,-0.0310,-0.0029
P1V,V,387703,0.7476,0.3864,0.0000,0.0000,0.7422,0.4245,-9.6340,-1.8849,0.0136,-0.0121,0.0049
P1V,V,387723,0.7480,0.3847,0.0000,0.0000,0.7583,0.4125,-9.5765,-1.9477,0.0159,-0.0340,0.0019
P1V,V,387743,0.7465,0.3818,0.0000,0.0000,0.7908,0.3509,-9.6741,-1.9472,0.0362,-0.0144,-0.0013
P1V,V,387763,0.7521,0.3868,0.0000,0.0000,0.7459,0.4688,-9.7555,-1.9334,0.0218,-0.0019,-0.0017
P1V,V,387783,0.7476,0.3872,0.0000,0.0000,0.7225,0.4335,-9.6172,-1.8717,0.0254,-0.0405,-0.0108
P1V,V,387803,0.7498,0.3864,0.0000,0.0000,0.7298,0.3718,-9.6609,-1.9454,0.0437,-0.0317,-0.0201
P1V,V,387823,0.7465,0.3868,0.0000,0.0000,0.7353,0.3143,-9.7076,-1.9873,0.0264,-0.0220,-0.0249
P1V,V,387843,0.7472,0.3889,0.0000,0.0000,0.7610,0.3030,-9.6807,-2.0082,0.0085,0.0036,-0.0115
P1V,V,387863,0.7465,0.3872,0.0000,0.0000,0.7895,0.3658,-9.6609,-2.0082,0.0063,0.0184,0.0052
P1V,V,387883,0.7465,0.3864,0.0000,0.0000,0.7858,0.4107,-9.7513,-2.0274,0.0040,-0.0185,0.0051
P1V,V,387903,0.7450,0.3864,0.0000,0.0000,0.7147,0.3161,-9.6058,-1.9322,-0.0165,-0.0253,-0.0079
P1V,V,387923,0.7480,0.3839,0.0000,0.0000,0.7592,0.3413,-9.6082,-1.8747,0.0033,-0.0220,-0.0061
P1V,V,387943,0.7495,0.3885,0.0000,0.0000,0.7569,0.3551,-9.6172,-1.8591,0.0059,-0.0341,-0.0084
P1V,V,387963,0.7472,0.3856,0.0000,0.0000,0.7982,0.3928,-9.6813,-1.8939,0.0057,-0.0462,-0.0089
P1V,V,387983,0.7491,0.3847,0.0000,0.0000,0.7913,0.3389,-9.6088,-1.8951,-0.0032,-0.0570,-0.0091
P1V,V,388003,0.7469,0.3877,0.0000,0.0000,0.8069,0.3622,-9.6968,-1.9226,0.0216,-0.0372,-0.0099
P1V,V,388023,0.7461,0.3860,0.0000,0.0000,0.8032,0.3778,-9.6316,-1.9633,0.0037,-0.0285,-0.0068
P1V,V,388043,0.7487,0.3881,0.0000,0.0000,0.8064,0.3066,-9.6944,-1.8885,0.0333,-0.0201,-0.0005
P1V,V,388063,0.7480,0.3872,0.0000,0.0000,0.7913,0.4125,-9.6244,-1.9885,0.0033,-0.0293,-0.0072
P1V,V,388083,0.7483,0.3872,0.0000,0.0000,0.8358,0.3455,-9.5394,-2.0453,0.0044,-0.0362,-0.0144
P1V,V,388103,0.7483,0.3872,0.0000,0.0000,0.8207,0.3874,-9.6022,-2.0998,0.0302,-0.0241,-0.0187
P1V,V,388123,0.7427,0.3939,0.0000,0.0000,0.8216,0.4868,-9.6891,-2.0513,0.0376,-0.0405,-0.0265
P1V,V,388143,0.7461,0.3885,0.0000,0.0000,0.8028,0.3185,-9.7070,-2.0926,0.0237,-0.0404,-0.0250
P1V,V,388163,0.7472,0.3872,0.0000,0.0000,0.7573,0.3245,-9.6058,-2.1352,-0.0188,0.0139,-0.0148
P1V,V,388183,0.7469,0.3856,0.0000,0.0000,0.7835,0.2946,-9.7256,-1.9759,-0.0209,0.0444,0.0040
P1V,V,388203,0.7472,0.3877,0.0000,0.0000,0.8041,0.4862,-9.7531,-1.8903,-0.0420,0.0314,0.0012
P1V,V,388223,0.7465,0.3872,0.0000,0.0000,0.8119,0.4137,-9.7358,-1.7645,-0.0573,-0.0139,-0.0119
P1V,V,388243,0.7465,0.3881,0.0000,0.0000,0.8225,0.2401,-9.7585,-1.5550,-0.0328,0.0101,-0.0143
P1V,V,388263,0.7487,0.3868,0.0000,0.0000,0.7840,0.2575,-9.6902,-1.4885,-0.0215,0.0177,-0.0009
P1V,V,388283,0.7483,0.3885,0.0000,0.0000,0.7890,0.2605,-9.5298,-1.4238,0.0232,0.0093,-0.0047
P1V,V,388303,0.7469,0.3856,0.0000,0.0000,0.8009,0.2209,-9.6914,-1.5286,0.0797,-0.0004,-0.0207
P1V,V,388323,0.7469,0.3868,0.0000,0.0000,0.7986,0.2473,-9.7974,-1.6250,0.1030,-0.0097,-0.0045
P1V,V,388343,0.7461,0.3868,0.0000,0.0000,0.8037,0.3042,-9.7561,-1.8549,0.0763,-0.0356,0.0037
P1V,V,388363,0.7461,0.3902,0.0000,0.0000,0.8243,0.2275,-9.5956,-2.0418,0.0646,-0.0405,0.0048
P1V,V,388383,0.7472,0.3868,0.0000,0.0000,0.8514,0.2611,-9.5795,-2.1070,0.0754,-0.0148,0.0076
P1V,V,388403,0.7483,0.3809,0.0000,0.0000,0.8170,0.3473,-9.6705,-2.1070,0.0677,-0.0203,-0.0029
P1V,V,388423,0.7454,0.3868,0.0000,0.0000,0.7922,0.1982,-9.6609,-2.0920,0.0368,-0.0334,-0.0148
P1V,V,388443,0.7476,0.3877,0.0000,0.0000,0.7872,0.1826,-9.6735,-2.0064,0.0119,-0.0100,0.0020
P1V,V,388463,0.7469,0.3889,0.0000,0.0000,0.7422,0.2245,-9.6202,-1.9412,0.0023,-0.0132,0.0236
P1V,V,388483,0.7480,0.3864,0.0000,0.0000,0.7642,0.3676,-9.5382,-1.9280,0.0112,-0.0388,0.0250
P1V,V,388503,0.7483,0.3843,0.0000,0.0000,0.7271,0.2551,-9.5310,-1.9891,0.0494,-0.0577,0.0152
P1V,V,388523,0.7469,0.3805,0.0000,0.0000,0.7569,0.2485,-9.6184,-2.0010,0.0823,-0.0172,0.0192
P1V,V,388543,0.7442,0.3860,0.0000,0.0000,0.7509,0.4251,-9.7160,-2.1232,0.0749,-0.0103,0.0228
P1V,V,388563,0.7472,0.3856,0.0000,0.0000,0.7482,0.3802,-9.5555,-2.2453,0.0385,-0.0437,0.0197
P1V,V,388583,0.7476,0.3856,0.0000,0.0000,0.7610,0.3922,-9.7417,-2.2699,0.0384,-0.0424,0.0245
P1V,V,388603,0.7454,0.3864,0.0000,0.0000,0.7385,0.3191,-9.5980,-2.2561,-0.0071,-0.0256,0.0217
P1V,V,388623,0.7454,0.3893,0.0000,0.0000,0.7601,0.4155,-9.5322,-2.1741,0.0132,0.0009,0.0229
P1V,V,388643,0.7461,0.3898,0.0000,0.0000,0.7454,0.6251,-9.7142,-2.0843,0.0076,-0.0185,0.0153
P1V,V,388663,0.7476,0.3910,0.0000,0.0000,0.7381,0.4203,-9.6370,-2.0268,-0.0160,-0.0589,-0.0071
P1V,V,388683,0.7495,0.3885,0.0000,0.0000,0.7482,0.3814,-9.6885,-1.9986,-0.0061,-0.0280,0.0012
P1V,V,388703,0.7457,0.3881,0.0000,0.0000,0.7330,0.3796,-9.4639,-1.9621,-0.0020,-0.0306,0.0127
P1V,V,388723,0.7487,0.3822,0.0000,0.0000,0.7514,0.4383,-9.7310,-1.9436,0.0457,-0.0280,0.0168
P1V,V,388743,0.7480,0.3847,0.0000,0.0000,0.7537,0.4898,-9.7890,-1.9699,0.0216,-0.0260,0.0117
P1V,V,388763,0.7465,0.3805,0.0000,0.0000,0.7349,0.4904,-9.7621,-2.0016,-0.0232,-0.0516,0.0019
P1V,V,388783,0.7480,0.3872,0.0000,0.0000,0.7977,0.2652,-9.4711,-1.8837,-0.0321,-0.0248,-0.0045
P1V,V,388803,0.7461,0.3868,0.0000,0.0000,0.7229,0.4371,-9.6447,-1.7573,0.0173,0.0133,0.0023
P1V,V,388823,0.7435,0.3881,0.0000,0.0000,0.7656,0.3808,-9.7250,-1.6855,0.0410,-0.0248,0.0027
P1V,V,388843,0.7480,0.3868,0.0000,0.0000,0.7596,0.3880,-9.7136,-1.7687,0.0450,-0.0282,-0.0020
P1V,V,388863,0.7465,0.3856,0.0000,0.0000,0.7679,0.5119,-9.6352,-1.8975,0.0456,-0.0282,-0.0041
P1V,V,388883,0.7472,0.3847,0.0000,0.0000,0.7326,0.4874,-9.6172,-2.1070,0.0568,-0.0624,-0.0164
P1V,V,388903,0.7457,0.3822,0.0000,0.0000,0.8078,0.3359,-9.5687,-2.2274,0.0862,-0.0256,-0.0117
P1V,V,388923,0.7465,0.3864,0.0000,0.0000,0.7642,0.5006,-9.5076,-2.3399,0.0803,-0.0161,-0.0073
P1V,V,388943,0.7472,0.3872,0.0000,0.0000,0.7335,0.4808,-9.6453,-2.4363,0.0754,-0.0249,-0.0180
P1V,V,388963,0.7450,0.3881,0.0000,0.0000,0.7922,0.5119,-9.6825,-2.5100,0.0145,-0.0301,-0.0256
P1V,V,388983,0.7487,0.3851,0.0000,0.0000,0.7491,0.3634,-9.4843,-2.3986,-0.0346,-0.0456,-0.0302
P1V,V,389003,0.7461,0.3872,0.0000,0.0000,0.7592,0.4101,-9.6765,-2.2567,-0.0337,-0.0221,-0.0244
P1V,V,389023,0.7454,0.3864,0.0000,0.0000,0.7303,0.4078,-9.5915,-2.1112,-0.0482,-0.0328,-0.0302
P1V,V,389043,0.7465,0.3872,0.0000,0.0000,0.7954,0.3652,-9.5944,-1.9879,-0.0401,-0.0440,-0.0302
P1V,V,389063,0.7446,0.3835,0.0000,0.0000,0.8055,0.3449,-9.6220,-1.9268,-0.0404,-0.0382,-0.0309
P1V,V,389083,0.7412,0.3818,0.0000,0.0000,0.8129,0.3317,-9.5759,-1.8220,-0.0237,-0.0464,-0.0313
P1V,V,389103,0.7442,0.3830,0.0000,0.0000,0.7083,0.3054,-9.6908,-1.8861,-0.0007,-0.0040,-0.0236
P1V,V,389123,0.7446,0.3818,0.0000,0.0000,0.8220,0.4239,-9.7094,-1.8909,0.0075,-0.0009,-0.0165
P1V,V,389143,0.7454,0.3780,0.0000,0.0000,0.8046,0.4221,-9.7040,-2.0352,-0.0083,-0.0541,-0.0385
P1V,V,389163,0.7450,0.3738,0.0000,0.0000,0.7927,0.2407,-9.6082,-2.0196,-0.0119,-0.0689,-0.0386
P1V,V,389183,0.7442,0.3843,0.0000,0.0000,0.7853,0.2150,-9.5992,-1.9879,-0.0143,-0.0441,-0.0264
P1V,V,389203,0.7442,0.3826,0.0000,0.0000,0.8156,0.2126,-9.7190,-1.9424,-0.0112,-0.0352,-0.0229
P1V,V,389223,0.7547,0.3839,0.0000,0.0000,0.7945,0.2928,-9.7058,-1.8939,-0.0250,-0.0285,-0.0155
P1V,V,389243,0.7450,0.3826,0.0000,0.0000,0.8285,0.3203,-9.6932,-1.8334,-0.0237,-0.0446,-0.0143
P1V,V,389263,0.7450,0.3835,0.0000,0.0000,0.8041,0.1850,-9.6543,-1.8807,-0.0278,-0.0437,-0.0136
P1V,V,389283,0.7442,0.3835,0.0000,0.0000,0.7872,0.2688,-9.5699,-1.8244,-0.0117,-0.0305,0.0004
P1V,V,389303,0.7401,0.3822,0.0000,0.0000,0.7528,0.2317,-9.5759,-1.8597,0.0254,-0.0277,-0.0064
P1V,V,389323,0.7457,0.3835,0.0000,0.0000,0.8046,0.3006,-9.6669,-1.9022,0.0385,-0.0091,-0.0109
P1V,V,389343,0.7465,0.3843,0.0000,0.0000,0.7257,0.3371,-9.6567,-2.0226,0.0308,-0.0224,-0.0117
P1V,V,389363,0.7442,0.3818,0.0000,0.0000,0.8266,0.3096,-9.6651,-2.0418,0.0257,-0.0362,-0.0067
P1V,V,389383,0.7427,0.3830,0.0000,0.0000,0.8165,0.2036,-9.6423,-2.0867,0.0193,-0.0420,-0.0097
P1V,V,389403,0.7431,0.3822,0.0000,0.0000,0.7151,0.2670,-9.6412,-2.0801,0.0176,-0.0153,-0.0053
P1V,V,389423,0.7431,0.3809,0.0000,0.0000,0.8234,0.3215,-9.5813,-1.9909,0.0132,-0.0341,-0.0063
P1V,V,389443,0.7446,0.3839,0.0000,0.0000,0.8174,0.2521,-9.7262,-1.9789,0.0225,-0.0285,-0.0044
P1V,V,389463,0.7480,0.3860,0.0000,0.0000,0.8083,0.3143,-9.6729,-2.0669,-0.0081,-0.0160,-0.0029
P1V,V,389483,0.7457,0.3835,0.0000,0.0000,0.8188,0.3203,-9.5855,-2.0142,-0.0064,-0.0329,-0.0091
P1V,V,389503,0.7461,0.3864,0.0000,0.0000,0.8101,0.2629,-9.5843,-2.0394,0.0048,-0.0405,-0.0085
P1V,V,389523,0.7431,0.3830,0.0000,0.0000,0.7367,0.2060,-9.6352,-2.0172,0.0224,-0.0209,0.0001
P1V,V,389543,0.7450,0.3856,0.0000,0.0000,0.7674,0.4066,-9.6705,-1.9801,0.0164,-0.0091,0.0039
P1V,V,389563,0.7469,0.3839,0.0000,0.0000,0.7500,0.4084,-9.7076,-1.9567,-0.0023,-0.0362,-0.0104
P1V,V,389583,0.7424,0.3830,0.0000,0.0000,0.7560,0.2862,-9.6753,-1.9687,-0.0015,-0.0480,-0.0107
P1V,V,389603,0.7457,0.3830,0.0000,0.0000,0.7518,0.2539,-9.6801,-1.9585,-0.0073,-0.0276,-0.0032
P1V,V,389623,0.7431,0.3843,0.0000,0.0000,0.7927,0.3485,-9.6232,-1.9166,0.0065,-0.0388,-0.0080
P1V,V,389643,0.7465,0.3830,0.0000,0.0000,0.8376,0.2395,-9.7250,-2.0232,0.0137,-0.0176,-0.0072
P1V,V,389663,0.7446,0.3835,0.0000,0.0000,0.7376,0.2772,-9.6154,-1.9873,0.0016,-0.0171,-0.0068
P1V,V,389683,0.7457,0.3851,0.0000,0.0000,0.7372,0.2635,-9.6525,-1.9645,0.0084,0.0031,-0.0019
P1V,V,389703,0.7461,0.3860,0.0000,0.0000,0.7220,0.3389,-9.5855,-1.9388,0.0217,-0.0425,-0.0057
P1V,V,389723,0.7457,0.3843,0.0000,0.0000,0.7528,0.1934,-9.7717,-1.9448,0.0330,-0.0139,-0.0079
P1V,V,389743,0.7454,0.3851,0.0000,0.0000,0.7473,0.4766,-9.5334,-1.9364,0.0052,-0.0344,0.0043
P1V,V,389763,0.7401,0.3835,0.0000,0.0000,0.7197,0.2275,-9.7106,-1.9651,0.0420,-0.0703,-0.0109
P1V,V,389783,0.7472,0.3843,0.0000,0.0000,0.7514,0.2461,-9.7591,-2.0675,0.0101,-0.0027,0.0011
P1V,V,389803,0.7461,0.3839,0.0000,0.0000,0.7601,0.4880,-9.6232,-2.0202,-0.0099,-0.0167,0.0053
P1V,V,389823,0.7472,0.3830,0.0000,0.0000,0.7853,0.3545,-9.5436,-2.0214,0.0095,-0.0733,-0.0099
P1V,V,389843,0.7469,0.3826,0.0000,0.0000,0.7523,0.3090,-9.6453,-2.0519,0.0233,-0.0436,-0.0244
P1V,V,389863,0.7461,0.3856,0.0000,0.0000,0.7642,0.2712,-9.6483,-1.9980,0.0341,-0.0318,-0.0072
P1V,V,389883,0.7506,0.3847,0.0000,0.0000,0.7234,0.3748,-9.6483,-2.0364,0.0215,-0.0282,-0.0075
P1V,V,389903,0.7442,0.3818,0.0000,0.0000,0.7569,0.3497,-9.6783,-2.0711,0.0188,-0.0449,-0.0172
P1V,V,389923,0.7450,0.3835,0.0000,0.0000,0.7271,0.2934,-9.6891,-2.0795,-0.0033,-0.0486,-0.0184
P1V,V,389943,0.7454,0.3835,0.0000,0.0000,0.7156,0.2120,-9.5645,-2.0382,-0.0153,-0.0442,-0.0059
P1V,V,389963,0.7457,0.3839,0.0000,0.0000,0.7073,0.2341,-9.6507,-2.0100,-0.0017,-0.0124,-0.0012
P1V,V,389983,0.7442,0.3835,0.0000,0.0000,0.6885,0.3790,-9.5621,-1.9729,0.0011,-0.0041,-0.0027
P1V,V,390003,0.7442,0.3826,0.0000,0.0000,0.7973,0.3593,-9.6699,-1.9352,0.0008,-0.0145,-0.0103
P1V,V,390023,0.7412,0.3822,0.0000,0.0000,0.7216,0.3108,-9.6412,-1.8621,0.0095,-0.0241,-0.0201
P1V,V,390043,0.7412,0.3793,0.0000,0.0000,0.7271,0.2724,-9.7543,-1.8819,0.0145,-0.0127,-0.0217
P1V,V,390063,0.7442,0.3809,0.0000,0.0000,0.7266,0.1928,-9.6675,-1.9472,0.0088,-0.0201,-0.0133
P1V,V,390083,0.7446,0.3822,0.0000,0.0000,0.7550,0.3179,-9.6885,-1.9879,0.0115,-0.0578,-0.0139
P1V,V,390103,0.7465,0.3805,0.0000,0.0000,0.8018,0.1138,-9.6334,-2.0639,0.0061,-0.0633,-0.0116
P1V,V,390123,0.7450,0.3826,0.0000,0.0000,0.7312,0.2179,-9.6867,-1.9849,0.0129,-0.0112,0.0041
P1V,V,390143,0.7450,0.3822,0.0000,0.0000,0.7532,0.2042,-9.6717,-1.9681,0.0020,0.0218,0.0079
P1V,V,390163,0.7450,0.3830,0.0000,0.0000,0.7083,0.3796,-9.6256,-1.9819,-0.0132,0.0053,0.0088
P1V,V,390183,0.7446,0.3818,0.0000,0.0000,0.8096,0.3419,-9.7124,-1.9705,-0.0061,0.0088,-0.0015
P1V,V,390203,0.7461,0.3801,0.0000,0.0000,0.7555,0.4251,-9.5489,-1.9442,0.0037,-0.0474,-0.0057
P1V,V,390223,0.7446,0.3763,0.0000,0.0000,0.8340,0.1970,-9.6561,-1.9513,0.0229,-0.0352,-0.0177
P1V,V,390243,0.7450,0.3801,0.0000,0.0000,0.8285,0.3096,-9.5944,-1.9843,0.0188,-0.0025,-0.0028
P1V,V,390263,0.7450,0.3818,0.0000,0.0000,0.8174,0.3491,-9.6471,-2.0304,0.0302,-0.0425,-0.0112
P1V,V,390283,0.7454,0.3726,0.0000,0.0000,0.8051,0.1916,-9.6238,-2.1310,0.0222,-0.0314,-0.0115
P1V,V,390303,0.7439,0.3805,0.0000,0.0000,0.8110,0.2904,-9.6837,-2.0992,0.0047,-0.0234,-0.0069
P1V,V,390323,0.7442,0.3789,0.0000,0.0000,0.7890,0.1964,-9.6010,-2.0585,-0.0023,-0.0377,-0.0061
P1V,V,390343,0.7431,0.3763,0.0000,0.0000,0.7913,0.3030,-9.6459,-1.9980,-0.0028,-0.0229,-0.0037
P1V,V,390363,0.7439,0.3784,0.0000,0.0000,0.7968,0.3503,-9.6483,-1.9460,0.0017,-0.0520,-0.0081
P1V,V,390383,0.7427,0.3793,0.0000,0.0000,0.8083,0.3161,-9.6334,-1.8663,0.0137,-0.0610,-0.0125
P1V,V,390403,0.7386,0.3801,0.0000,0.0000,0.7105,0.3114,-9.6346,-1.8214,0.0393,-0.0469,-0.0035
P1V,V,390423,0.7424,0.3780,0.0000,0.0000,0.8266,0.3545,-9.6974,-1.8029,0.0597,-0.0388,-0.0001
P1V,V,390443,0.7431,0.3738,0.0000,0.0000,0.8032,0.2832,-9.6705,-1.8855,0.0526,-0.0258,-0.0059
P1V,V,390463,0.7435,0.3780,0.0000,0.0000,0.7991,0.3221,-9.5933,-1.8879,0.0833,-0.0041,-0.0068
P1V,V,390483,0.7439,0.3721,0.0000,0.0000,0.8115,0.3221,-9.8256,-2.0920,0.0710,-0.0107,-0.0172
P1V,V,390503,0.7427,0.3730,0.0000,0.0000,0.8110,0.2922,-9.7274,-2.1801,0.0008,-0.0257,-0.0151
P1V,V,390523,0.7431,0.3784,0.0000,0.0000,0.7940,0.1515,-9.5082,-2.1855,-0.0049,-0.0254,-0.0143
P1V,V,390543,0.7409,0.3776,0.0000,0.0000,0.7826,0.2467,-9.6400,-2.1184,0.0234,-0.0278,-0.0104
P1V,V,390563,0.7480,0.3755,0.0000,0.0000,0.8051,0.1305,-9.6855,-2.0543,0.0099,-0.0378,-0.0075
P1V,V,390583,0.7435,0.3789,0.0000,0.0000,0.7973,0.2611,-9.6908,-2.0184,-0.0069,-0.0141,0.0092
P1V,V,390603,0.7454,0.3742,0.0000,0.0000,0.7954,0.3904,-9.7088,-2.0465,-0.0253,-0.0390,0.0064
P1V,V,390623,0.7412,0.3780,0.0000,0.0000,0.7881,0.2664,-9.6166,-2.0926,-0.0409,-0.0449,-0.0079
P1V,V,390643,0.7409,0.3747,0.0000,0.0000,0.7587,0.3173,-9.4615,-1.9939,-0.0254,-0.0120,-0.0055
P1V,V,390663,0.7412,0.3734,0.0000,0.0000,0.8064,0.3838,-9.6980,-1.9148,0.0245,-0.0043,-0.0057
P1V,V,390683,0.7435,0.3772,0.0000,0.0000,0.8294,0.4084,-9.6567,-1.9142,0.0109,-0.0433,-0.0228
P1V,V,390703,0.7439,0.3776,0.0000,0.0000,0.7968,0.2120,-9.7232,-1.9244,0.0215,-0.0450,-0.0215
P1V,V,390723,0.7427,0.3721,0.0000,0.0000,0.7468,0.2048,-9.6154,-1.9939,0.0092,-0.0282,-0.0192
P1V,V,390743,0.7439,0.3789,0.0000,0.0000,0.8041,0.1754,-9.6555,-1.9843,0.0244,-0.0187,-0.0093
P1V,V,390763,0.7439,0.3789,0.0000,0.0000,0.8340,0.2964,-9.6112,-2.0232,0.0248,-0.0437,-0.0075
P1V,V,390783,0.7401,0.3784,0.0000,0.0000,0.7353,0.1706,-9.6771,-2.1178,0.0193,-0.0735,-0.0129
P1V,V,390803,0.7431,0.3784,0.0000,0.0000,0.8363,0.1688,-9.6274,-2.0705,0.0218,-0.0520,0.0072
P1V,V,390823,0.7424,0.3742,0.0000,0.0000,0.7505,0.3461,-9.6082,-1.9903,0.0301,-0.0432,0.0127
P1V,V,390843,0.7427,0.3801,0.0000,0.0000,0.7468,0.2868,-9.6142,-1.9531,0.0477,-0.0691,0.0024
P1V,V,390863,0.7431,0.3730,0.0000,0.0000,0.7206,0.2856,-9.6956,-1.9430,0.0709,-0.0565,-0.0004
P1V,V,390883,0.7409,0.3793,0.0000,0.0000,0.7473,0.3126,-9.7148,-2.0172,0.0425,-0.0376,-0.0069
P1V,V,390903,0.7442,0.3709,0.0000,0.0000,0.8239,0.3407,-9.5358,-1.9992,0.0457,-0.0385,-0.0099
P1V,V,390923,0.7424,0.3675,0.0000,0.0000,0.6789,0.3670,-9.5657,-2.1148,0.0662,-0.0245,-0.0215
P1V,V,390943,0.7409,0.3751,0.0000,0.0000,0.6954,0.4503,-9.6747,-2.2579,0.0500,-0.0229,-0.0188
P1V,V,390963,0.7420,0.3726,0.0000,0.0000,0.7362,0.4503,-9.6465,-2.2543,0.0059,-0.0365,-0.0374
P1V,V,390983,0.7435,0.3763,0.0000,0.0000,0.7037,0.2096,-9.6196,-2.2519,-0.0025,-0.0312,-0.0289
P1V,V,391003,0.7439,0.3751,0.0000,0.0000,0.7362,0.4012,-9.5819,-2.1154,-0.0056,-0.0013,-0.0172
P1V,V,391023,0.7427,0.3734,0.0000,0.0000,0.8413,0.4066,-9.6950,-2.1112,0.0120,-0.0338,-0.0465
P1V,V,391043,0.7412,0.3772,0.0000,0.0000,0.7028,0.1754,-9.6932,-2.0304,-0.0120,-0.0546,-0.0721
P1V,V,391063,0.7390,0.3726,0.0000,0.0000,0.7918,-0.0928,-9.7387,-1.8274,-0.0185,-0.0582,-0.0629
P1V,V,391083,0.7450,0.3591,0.0000,0.0000,0.7482,-0.1371,-9.7747,-1.7645,-0.0093,-0.0698,-0.0284
P1V,V,391103,0.7442,0.3763,0.0000,0.0000,0.7326,-0.0156,-9.8004,-1.8064,0.0041,-0.0835,0.0120
P1V,V,391123,0.7435,0.3780,0.0000,0.0000,0.7367,0.1754,-9.7082,-1.8867,0.0216,-0.1054,0.0305
P1V,V,391143,0.7405,0.3780,0.0000,0.0000,0.7390,0.2874,-9.6914,-1.9675,0.0500,-0.1115,0.0436
P1V,V,391163,0.7398,0.3772,0.0000,0.0000,0.8005,0.4479,-9.6651,-2.1070,0.0344,-0.0798,0.0404
P1V,V,391183,0.7409,0.3742,0.0000,0.0000,0.7165,0.4928,-9.5016,-2.1525,0.0345,-0.0674,0.0226
P1V,V,391203,0.7424,0.3717,0.0000,0.0000,0.6867,0.4862,-9.6052,-2.2369,0.0209,-0.0671,-0.0107
P1V,V,391223,0.7394,0.3713,0.0000,0.0000,0.7684,0.2024,-9.5016,-2.2986,-0.0084,-0.0677,-0.0370
P1V,V,391243,0.7390,0.3763,0.0000,0.0000,0.7326,0.0251,-9.4466,-2.2459,-0.0148,-0.0179,-0.0296
P1V,V,391263,0.7416,0.3734,0.0000,0.0000,0.7459,0.0443,-9.5388,-2.1663,-0.0020,-0.0136,-0.0199
P1V,V,391283,0.7416,0.3713,0.0000,0.0000,0.7495,-0.0623,-9.6801,-2.1034,-0.0044,-0.0083,-0.0084
P1V,V,391303,0.7416,0.3721,0.0000,0.0000,0.7234,0.0952,-9.6813,-2.0034,-0.0357,-0.0101,0.0099
P1V,V,391323,0.7416,0.3675,0.0000,0.0000,0.7105,-0.0060,-9.5603,-1.9909,-0.0502,-0.0462,0.0059
P1V,V,391343,0.7424,0.3688,0.0000,0.0000,0.7454,-0.0353,-9.6447,-1.9591,-0.0203,-0.0179,0.0193
P1V,V,391363,0.7409,0.3734,0.0000,0.0000,0.7174,0.0593,-9.5633,-1.9783,-0.0266,-0.0047,0.0345
P1V,V,391383,0.7439,0.3730,0.0000,0.0000,0.7307,0.1497,-9.5430,-2.0867,-0.0221,0.0137,0.0364
P1V,V,391403,0.7416,0.3713,0.0000,0.0000,0.7555,0.3197,-9.6142,-2.1938,-0.0245,0.0365,0.0280
P1V,V,391423,0.7435,0.3730,0.0000,0.0000,0.7243,0.3880,-9.4992,-2.2615,-0.0493,0.0337,0.0121
P1V,V,391443,0.7424,0.3759,0.0000,0.0000,0.7968,0.4006,-9.5723,-2.1226,-0.0300,0.0264,0.0015
P1V,V,391463,0.7412,0.3726,0.0000,0.0000,0.7881,0.3395,-9.6226,-2.1352,-0.0238,0.0464,-0.0051
P1V,V,391483,0.7390,0.3734,0.0000,0.0000,0.8271,0.4251,-9.6849,-2.0980,-0.0133,0.1081,-0.0011
P1V,V,391503,0.7416,0.3705,0.0000,0.0000,0.7165,0.6269,-9.7855,-1.9855,-0.0298,0.1029,-0.0141
P1V,V,391523,0.7398,0.3793,0.0000,0.0000,0.8000,0.3814,-9.7226,-1.8903,-0.0418,0.0345,-0.0298
P1V,V,391543,0.7427,0.3768,0.0000,0.0000,0.7193,0.2635,-9.7070,-1.8322,-0.0353,0.0573,-0.0207
P1V,V,391563,0.7416,0.3700,0.0000,0.0000,0.7936,0.3137,-9.7399,-1.7813,-0.0321,0.0695,-0.0013
P1V,V,391583,0.7435,0.3755,0.0000,0.0000,0.6876,0.3628,-9.7567,-1.6849,-0.0237,0.0426,-0.0132
P1V,V,391603,0.7412,0.3755,0.0000,0.0000,0.7532,0.2156,-9.8795,-1.6753,-0.0179,0.0160,-0.0117
P1V,V,391623,0.7431,0.3784,0.0000,0.0000,0.7482,0.2389,-9.7998,-1.6867,-0.0253,0.0203,-0.0108
P1V,V,391643,0.7405,0.3738,0.0000,0.0000,0.7560,0.3359,-9.7387,-1.5957,-0.0061,-0.0164,-0.0077
P1V,V,391663,0.7405,0.3734,0.0000,0.0000,0.7931,0.2389,-9.7124,-1.6208,0.0321,-0.0332,-0.0073
P1V,V,391683,0.7424,0.3742,0.0000,0.0000,0.7977,0.2239,-9.6657,-1.6340,0.0645,-0.0249,0.0020
P1V,V,391703,0.7420,0.3726,0.0000,0.0000,0.7977,0.3509,-9.7160,-1.7777,0.0801,-0.0302,0.0037
P1V,V,391723,0.7416,0.3734,0.0000,0.0000,0.7940,0.1970,-9.6507,-1.9232,0.0917,-0.0332,-0.0043
P1V,V,391743,0.7439,0.3738,0.0000,0.0000,0.8115,0.2132,-9.6400,-2.1364,0.0890,-0.0238,-0.0047
P1V,V,391763,0.7405,0.3772,0.0000,0.0000,0.7349,0.3353,-9.6705,-2.2741,0.0653,-0.0213,-0.0097
P1V,V,391783,0.7427,0.3747,0.0000,0.0000,0.8170,0.2317,-9.6202,-2.3226,0.0333,-0.0565,-0.0175
P1V,V,391803,0.7420,0.3717,0.0000,0.0000,0.8285,0.1054,-9.5627,-2.3148,0.0060,-0.0341,-0.0141
P1V,V,391823,0.7427,0.3726,0.0000,0.0000,0.8202,0.1287,-9.4909,-2.2010,0.0063,-0.0175,-0.0004
P1V,V,391843,0.7386,0.3705,0.0000,0.0000,0.7550,0.2437,-9.6046,-2.1555,0.0023,-0.0413,-0.0017
P1V,V,391863,0.7412,0.3730,0.0000,0.0000,0.8000,0.1928,-9.6555,-2.0513,0.0056,-0.0472,-0.0119
P1V,V,391883,0.7412,0.3734,0.0000,0.0000,0.7362,0.2096,-9.6932,-1.9867,-0.0124,-0.0344,-0.0083
P1V,V,391903,0.7439,0.3700,0.0000,0.0000,0.7202,0.3131,-9.7112,-1.9597,-0.0425,-0.0432,-0.0067
P1V,V,391923,0.7420,0.3734,0.0000,0.0000,0.7936,0.2245,-9.6795,-1.9082,-0.0437,-0.0389,-0.0043
P1V,V,391943,0.7416,0.3709,0.0000,0.0000,0.8110,0.3018,-9.6028,-1.8711,-0.0266,-0.0330,-0.0036
P1V,V,391963,0.7409,0.3776,0.0000,0.0000,0.8073,0.2814,-9.7537,-1.8585,-0.0184,-0.0362,-0.0125
P1V,V,391983,0.7394,0.3721,0.0000,0.0000,0.8317,0.2533,-9.7855,-1.8531,-0.0274,-0.0382,-0.0109
P1V,V,392003,0.7405,0.3742,0.0000,0.0000,0.7509,0.2443,-9.6723,-1.8011,-0.0304,-0.0285,-0.0104
P1V,V,392023,0.7427,0.3751,0.0000,0.0000,0.8211,0.2305,-9.6130,-1.8298,-0.0187,-0.0329,-0.0143
P1V,V,392043,0.7439,0.3751,0.0000,0.0000,0.7156,0.0784,-9.6112,-1.7951,0.0264,-0.0317,-0.0104
P1V,V,392063,0.7442,0.3772,0.0000,0.0000,0.7817,0.1940,-9.6938,-1.8909,0.0418,-0.0172,-0.0075
P1V,V,392083,0.7375,0.3793,0.0000,0.0000,0.6913,0.1694,-9.6777,-1.9957,0.0377,-0.0397,-0.0095
P1V,V,392103,0.7424,0.3700,0.0000,0.0000,0.7477,0.1461,-9.6328,-2.0657,0.0285,-0.0456,-0.0037
P1V,V,392123,0.7424,0.3738,0.0000,0.0000,0.7417,0.1760,-9.6202,-2.1232,0.0081,-0.0300,0.0020
P1V,V,392143,0.7450,0.3675,0.0000,0.0000,0.8326,0.1868,-9.5717,-2.0723,0.0092,-0.0388,-0.0036
P1V,V,392163,0.7442,0.3747,0.0000,0.0000,0.8064,0.2617,-9.6525,-2.0819,0.0093,-0.0386,-0.0051
P1V,V,392183,0.7435,0.3713,0.0000,0.0000,0.7963,0.2521,-9.6573,-2.0585,0.0013,-0.0400,-0.0097
P1V,V,392203,0.7412,0.3759,0.0000,0.0000,0.8051,0.2443,-9.6471,-1.9789,-0.0101,-0.0164,-0.0120
P1V,V,392223,0.7461,0.3755,0.0000,0.0000,0.7151,0.3078,-9.6591,-1.9184,-0.0180,-0.0003,-0.0115
P1V,V,392243,0.7424,0.3763,0.0000,0.0000,0.7243,0.2976,-9.7202,-1.9328,-0.0354,-0.0149,-0.0200
P1V,V,392263,0.7398,0.3742,0.0000,0.0000,0.7321,0.1467,-9.5944,-1.8711,-0.0374,-0.0077,-0.0241
