person_id,label,timestamp,flex1,flex2,flex3,flex4,flex5,ax,ay,az,gx,gy,gz
P1W,W,558883,1.0000,0.9966,0.9887,1.0000,1.0000,-1.4945,-8.7993,-4.4793,0.0148,-0.0433,-0.0048
P1W,W,558903,0.9961,0.9979,1.0000,0.9849,0.9774,-1.4502,-8.7945,-4.4655,0.0017,-0.0241,0.0008
P1W,W,558923,0.9992,0.9949,0.9874,1.0000,0.9354,-1.4550,-8.7646,-4.4482,0.0099,-0.0358,-0.0091
P1W,W,558943,0.9969,0.9996,0.9947,1.0000,1.0000,-1.5292,-8.7933,-4.4170,0.0103,-0.0446,-0.0071
P1W,W,558963,0.9961,0.9979,0.9956,0.9869,0.9712,-1.6160,-8.8316,-4.4056,0.0143,-0.0073,0.0061
P1W,W,558983,0.9958,0.9966,1.0000,1.0000,0.9946,-1.4669,-8.8167,-4.3751,0.0096,0.0091,0.0161
P1W,W,559003,0.9961,0.9988,0.9956,1.0000,0.9631,-1.3963,-8.8089,-4.3985,0.0081,-0.0362,0.0007
P1W,W,559023,0.9958,1.0000,0.9741,0.9829,1.0000,-1.5101,-8.7945,-4.3907,0.0120,-0.0557,-0.0089
P1W,W,559043,0.9961,0.9957,1.0000,0.9931,0.9564,-1.5202,-8.7915,-4.4092,0.0236,-0.0334,-0.0041
P1W,W,559063,0.9965,0.9983,0.9968,0.9978,0.9865,-1.4574,-8.7789,-4.4476,0.0312,-0.0354,-0.0073
P1W,W,559083,0.9965,0.9944,0.9960,1.0000,0.9856,-1.5304,-8.8101,-4.4733,0.0172,-0.0342,0.0000
P1W,W,559103,0.9961,0.9957,0.9973,0.9806,1.0000,-1.5220,-8.7975,-4.4745,0.0099,-0.0301,0.0051
P1W,W,559123,0.9935,0.9957,0.9887,0.9806,0.9765,-1.4376,-8.7245,-4.4841,0.0107,-0.0381,-0.0007
P1W,W,559143,0.9950,0.9983,0.9960,0.9904,0.9679,-1.4741,-8.7873,-4.4733,0.0164,-0.0476,-0.0027
P1W,W,559163,0.9961,0.9979,1.0000,0.9798,1.0000,-1.4077,-8.8346,-4.4805,0.0075,-0.0376,-0.0040
P1W,W,559183,0.9954,0.9957,0.9947,0.9888,0.9430,-1.3837,-8.7885,-4.4176,-0.0048,-0.0356,-0.0084
P1W,W,559203,0.9942,1.0000,0.9973,0.9896,0.9459,-1.4346,-8.7634,-4.4038,0.0109,-0.0296,-0.0113
P1W,W,559223,0.9965,0.9992,0.9917,0.9849,0.9287,-1.4532,-8.8167,-4.4110,0.0187,-0.0248,-0.0159
P1W,W,559243,0.9965,0.9962,1.0000,1.0000,0.9244,-1.4867,-8.8448,-4.3979,0.0226,-0.0321,-0.0173
P1W,W,559263,0.9954,0.9944,0.9981,0.9876,0.9641,-1.5352,-8.8233,-4.4368,0.0193,-0.0246,-0.0147
P1W,W,559283,0.9958,0.9944,0.9973,0.9900,1.0000,-1.5520,-8.7682,-4.4661,0.0159,-0.0274,-0.0083
P1W,W,559303,0.9961,0.9979,0.9913,0.9927,0.9287,-1.6382,-8.7658,-4.4829,0.0195,-0.0216,-0.0025
P1W,W,559323,0.9977,0.9949,1.0000,0.9951,1.0000,-1.5244,-8.7951,-4.4278,0.0103,-0.0160,0.0027
P1W,W,559343,0.9931,0.9949,0.9844,0.9935,0.9430,-1.4909,-8.7807,-4.4194,0.0164,-0.0537,-0.0104
P1W,W,559363,0.9961,0.9953,0.9921,0.9962,0.9655,-1.5699,-8.7975,-4.4332,0.0171,-0.0494,-0.0116
P1W,W,559383,0.9969,0.9962,0.9938,1.0000,0.9985,-1.5184,-8.8143,-4.4314,0.0121,-0.0409,0.0040
P1W,W,559403,0.9965,0.9962,0.9956,0.9853,0.9440,-1.4681,-8.7640,-4.4595,0.0128,-0.0348,0.0028
P1W,W,559423,0.9950,0.9953,0.9951,1.0000,0.9770,-1.4394,-8.7514,-4.4206,0.0164,-0.0298,-0.0009
P1W,W,559443,0.9946,0.9957,1.0000,1.0000,1.0000,-1.4933,-8.8179,-4.4637,0.0215,-0.0440,-0.0115
P1W,W,559463,0.9965,0.9940,0.9938,0.9880,1.0000,-1.5568,-8.7592,-4.5158,0.0080,-0.0220,-0.0044
P1W,W,559483,0.9946,0.9983,0.9917,1.0000,1.0000,-1.4885,-8.7682,-4.4619,0.0133,-0.0116,0.0027
P1W,W,559503,0.9942,0.9953,0.9973,1.0000,1.0000,-1.4161,-8.8089,-4.4362,0.0053,-0.0336,-0.0067
P1W,W,559523,0.9958,0.9944,0.9861,1.0000,1.0000,-1.4783,-8.7957,-4.4194,0.0081,-0.0560,-0.0226
P1W,W,559543,0.9938,0.9970,0.9951,1.0000,0.9392,-1.5484,-8.8370,-4.4799,0.0149,-0.0468,-0.0137
P1W,W,559563,0.9927,0.9949,0.9986,0.9986,1.0000,-1.5406,-8.7760,-4.4482,0.0067,-0.0284,-0.0056
P1W,W,559583,0.9969,0.9931,0.9895,0.9994,0.9282,-1.4885,-8.8137,-4.4314,-0.0032,-0.0260,-0.0044
P1W,W,580483,0.8491,0.1173,0.0000,0.0000,0.7886,-0.1880,-9.8753,-0.4521,0.0135,-0.0497,0.0097
P1W,W,580503,0.8476,0.1229,0.0000,0.0000,0.9129,-0.2383,-9.8681,-0.4179,-0.0733,-0.0605,0.0116
P1W,W,580543,0.8479,0.1212,0.0000,0.0000,0.8656,-0.1233,-9.7370,-0.1497,-0.0288,-0.0204,-0.0013
P1W,W,580563,0.8468,0.1181,0.0000,0.0000,0.8799,-0.1599,-9.8890,-0.0814,-0.0224,-0.0003,-0.0217
P1W,W,580583,0.8468,0.1186,0.0000,0.0000,0.9029,-0.1958,-9.8866,0.0641,0.0012,-0.0101,-0.0301
P1W,W,580603,0.8491,0.1169,0.0000,0.0000,0.8971,-0.1928,-9.8609,-0.0012,0.0000,-0.0193,-0.0524
P1W,W,580623,0.8479,0.1216,0.0000,0.0000,0.8613,-0.3616,-9.7849,0.0174,0.0297,-0.0224,-0.0609
P1W,W,580643,0.8449,0.1181,0.0000,0.0000,0.8680,-0.3916,-9.8028,-0.0802,0.0344,-0.0378,-0.0568
P1W,W,580663,0.8468,0.1169,0.0000,0.0000,0.8622,-0.4982,-9.8789,-0.1641,0.0105,-0.0047,-0.0468
P1W,W,580683,0.8460,0.1069,0.0000,0.0000,0.8680,-0.4527,-9.8094,-0.1748,0.0047,0.0305,-0.0332
P1W,W,580703,0.8472,0.1160,0.0000,0.0000,0.8675,-0.3748,-9.9202,-0.1659,0.0140,-0.0103,-0.0341
P1W,W,580723,0.8460,0.1220,0.0000,0.0000,0.8240,-0.5203,-9.7052,-0.2413,-0.0081,-0.0449,-0.0365
P1W,W,580743,0.8487,0.1199,0.0000,0.0000,0.9387,-0.6628,-9.7765,-0.3114,0.0073,-0.0286,-0.0236
P1W,W,580763,0.8476,0.1194,0.0000,0.0000,0.8594,-0.4682,-9.7795,-0.3269,0.0028,-0.0332,-0.0123
P1W,W,580783,0.8468,0.1225,0.0000,0.0000,0.8871,-0.5353,-9.7106,-0.2551,0.0225,-0.0357,-0.0073
P1W,W,580803,0.8472,0.1160,0.0000,0.0000,0.8317,-0.4227,-9.7513,-0.2203,0.0119,-0.0024,-0.0019
P1W,W,580823,0.8479,0.1190,0.0000,0.0000,0.8579,-0.3347,-9.8166,-0.1790,0.0057,-0.0374,0.0019
P1W,W,580843,0.8487,0.1190,0.0000,0.0000,0.8771,-0.4461,-9.8495,-0.2006,-0.0261,-0.0717,-0.0113
P1W,W,580863,0.8483,0.1233,0.0000,0.0000,0.8747,-0.4664,-9.7328,-0.1305,-0.0389,-0.0332,-0.0096
P1W,W,580883,0.8498,0.1203,0.0000,0.0000,0.7862,-0.4676,-9.7184,-0.0748,-0.0060,-0.0072,-0.0079
P1W,W,580903,0.8464,0.1199,0.0000,0.0000,0.8904,-0.3682,-9.7747,-0.0096,0.0213,0.0168,-0.0027
P1W,W,580923,0.8464,0.1190,0.0000,0.0000,0.8890,-0.2808,-9.9226,-0.0419,0.0011,-0.0445,-0.0085
P1W,W,580943,0.8434,0.1220,0.0000,0.0000,0.8116,-0.4952,-9.7370,-0.0671,-0.0246,-0.0612,-0.0080
P1W,W,580963,0.8464,0.1220,0.0000,0.0000,0.9349,-0.5491,-9.6759,-0.1120,0.0056,-0.0143,-0.0140
P1W,W,580983,0.8544,0.1259,0.0000,0.0000,0.8876,-0.4072,-9.7902,-0.0724,0.0480,0.0249,-0.0015
P1W,W,581003,0.8472,0.1229,0.0000,0.0000,0.8900,-0.3048,-9.8393,-0.0269,0.0461,-0.0268,-0.0052
P1W,W,581023,0.8483,0.1246,0.0000,0.0000,0.9077,-0.4419,-9.8866,-0.0635,0.0137,-0.0550,-0.0135
P1W,W,581043,0.8491,0.1264,0.0000,0.0000,0.8264,-0.5036,-9.6914,-0.1515,-0.0398,-0.0161,-0.0224
P1W,W,581063,0.8479,0.1268,0.0000,0.0000,0.8584,-0.4281,-9.6190,-0.0671,0.0294,0.0225,-0.0248
P1W,W,581083,0.8476,0.1268,0.0000,0.0000,0.7891,-0.3173,-9.7399,-0.0778,0.0622,-0.0007,-0.0400
P1W,W,581103,0.8502,0.1290,0.0000,0.0000,0.8909,-0.3658,-9.9417,-0.1413,0.0755,-0.0085,-0.0629
P1W,W,581123,0.8476,0.1277,0.0000,0.0000,0.9301,-0.4084,-9.8226,-0.1940,0.0242,-0.0145,-0.0297
P1W,W,581143,0.8487,0.1385,0.0000,0.0000,0.8675,-0.3958,-9.8184,-0.3335,0.0071,-0.0155,-0.0199
P1W,W,581163,0.8457,0.1333,0.0000,0.0000,0.7590,-0.4640,-9.4717,-0.3251,0.0216,-0.0341,-0.0047
P1W,W,581183,0.8460,0.1363,0.0000,0.0000,0.8761,-0.4341,-9.8621,-0.2790,0.0870,-0.0400,-0.0035
P1W,W,581203,0.8491,0.1367,0.0000,0.0000,0.7996,-0.5838,-10.0717,-0.1868,0.0473,-0.0361,-0.0221
P1W,W,581223,0.8502,0.1346,0.0000,0.0000,0.8986,-0.3587,-9.9561,-0.2563,-0.0317,-0.0416,-0.0229
P1W,W,581243,0.8464,0.1359,0.0000,0.0000,0.7886,-0.5820,-9.6154,-0.3126,-0.0681,-0.0753,-0.0164
P1W,W,581263,0.8483,0.1419,0.0000,0.0000,0.8254,-0.6065,-9.6130,-0.2778,-0.0028,-0.0273,0.0044
P1W,W,581283,0.8498,0.1376,0.0000,0.0000,0.9263,-0.3533,-9.8160,-0.2132,0.0297,-0.0020,-0.0007
P1W,W,581303,0.8483,0.1376,0.0000,0.0000,0.8178,-0.3509,-9.8172,-0.1623,0.0318,-0.0432,-0.0100
P1W,W,581323,0.8506,0.1385,0.0000,0.0000,0.8565,-0.3724,-9.9070,-0.1156,0.0093,-0.0389,-0.0151
P1W,W,581343,0.8514,0.1359,0.0000,0.0000,0.8130,-0.4844,-9.7088,-0.1186,-0.0193,-0.0486,-0.0097
P1W,W,581363,0.8514,0.1367,0.0000,0.0000,0.8231,-0.4718,-9.7088,-0.1479,0.0063,-0.0381,-0.0204
P1W,W,581383,0.8502,0.1354,0.0000,0.0000,0.8259,-0.3778,-9.7411,-0.2173,0.0080,-0.0360,-0.0191
P1W,W,581403,0.8510,0.1372,0.0000,0.0000,0.8235,-0.4742,-9.7807,-0.2263,0.0349,-0.0176,-0.0230
P1W,W,581423,0.8518,0.1359,0.0000,0.0000,0.7925,-0.3880,-9.8854,-0.2772,-0.0008,-0.0036,-0.0310
P1W,W,581443,0.8537,0.1363,0.0000,0.0000,0.8020,-0.4814,-9.7208,-0.3527,-0.0096,-0.0472,-0.0252
P1W,W,581463,0.8514,0.1376,0.0000,0.0000,0.7710,-0.5071,-9.8920,-0.3545,0.0017,-0.0349,-0.0129
P1W,W,581483,0.8479,0.1359,0.0000,0.0000,0.8063,-0.4772,-9.9190,-0.3275,-0.0297,-0.0678,-0.0129
P1W,W,581503,0.8529,0.1354,0.0000,0.0000,0.7738,-0.5904,-9.7483,-0.2191,-0.0506,-0.0244,0.0000
P1W,W,581523,0.8506,0.1354,0.0000,0.0000,0.8278,-0.3066,-9.7711,-0.0856,-0.0513,-0.0001,-0.0004
P1W,W,581543,0.8510,0.1346,0.0000,0.0000,0.7853,-0.3209,-9.7849,0.0210,-0.0496,-0.0677,-0.0143
P1W,W,581563,0.8514,0.1342,0.0000,0.0000,0.8713,-0.4545,-9.6885,0.0868,-0.0460,-0.0866,-0.0288
P1W,W,581583,0.8510,0.1342,0.0000,0.0000,0.8369,-0.4808,-9.8872,0.1018,-0.0215,-0.0384,-0.0274
P1W,W,581603,0.8495,0.1342,0.0000,0.0000,0.7700,-0.5796,-9.9094,0.1269,-0.0187,-0.0278,-0.0260
P1W,W,581623,0.8487,0.1398,0.0000,0.0000,0.8747,-0.4910,-9.7340,0.1904,0.0213,-0.0104,-0.0252
P1W,W,581643,0.8487,0.1359,0.0000,0.0000,0.8011,-0.5982,-9.7986,0.0425,0.0325,-0.0397,-0.0240
P1W,W,581663,0.8502,0.1333,0.0000,0.0000,0.8732,-0.6185,-9.8561,-0.1641,-0.0113,-0.0349,-0.0310
P1W,W,581683,0.8491,0.1329,0.0000,0.0000,0.8708,-0.6562,-9.5897,-0.2299,-0.0285,-0.0136,-0.0310
P1W,W,581703,0.8514,0.1337,0.0000,0.0000,0.8646,-0.6688,-9.6561,-0.2712,0.0128,-0.0116,-0.0241
P1W,W,581723,0.8476,0.1333,0.0000,0.0000,0.8226,-0.6059,-9.8657,-0.2593,-0.0085,-0.0152,-0.0097
P1W,W,581743,0.8495,0.1342,0.0000,0.0000,0.8498,-0.5497,-9.8214,-0.1659,-0.0357,-0.0377,-0.0029
P1W,W,581763,0.8487,0.1346,0.0000,0.0000,0.8302,-0.6389,-9.8753,-0.0940,-0.0670,-0.0352,-0.0052
P1W,W,581783,0.8540,0.1333,0.0000,0.0000,0.8565,-0.5694,-9.6220,0.0461,-0.0514,-0.0413,0.0028
P1W,W,581803,0.8495,0.1342,0.0000,0.0000,0.9163,-0.5012,-9.7567,0.1365,0.0017,-0.0434,0.0168
P1W,W,581823,0.8502,0.1342,0.0000,0.0000,0.9143,-0.4796,-9.8471,0.0724,-0.0069,-0.0402,0.0076
P1W,W,581843,0.8491,0.1324,0.0000,0.0000,0.8852,-0.4742,-9.7974,0.0425,-0.0164,-0.0392,-0.0024
P1W,W,581863,0.8479,0.1350,0.0000,0.0000,0.8713,-0.5371,-9.7980,0.0629,-0.0047,-0.0702,0.0005
P1W,W,581883,0.8479,0.1342,0.0000,0.0000,0.8785,-0.5263,-9.7208,0.0964,0.0448,-0.0374,0.0040
P1W,W,581903,0.8479,0.1359,0.0000,0.0000,0.8517,-0.3820,-9.7992,0.0347,0.0580,-0.0234,0.0037
P1W,W,581923,0.8487,0.1337,0.0000,0.0000,0.9344,-0.4042,-9.8705,-0.0329,0.0302,-0.0582,-0.0112
P1W,W,581943,0.8479,0.1337,0.0000,0.0000,0.9206,-0.6359,-9.7405,-0.1694,0.0121,-0.0665,-0.0021
P1W,W,581963,0.8491,0.1346,0.0000,0.0000,0.9201,-0.4736,-9.7639,-0.1311,0.0569,-0.0366,0.0103
P1W,W,581983,0.8491,0.1398,0.0000,0.0000,0.9186,-0.5706,-9.7980,-0.1036,0.0701,-0.0461,0.0068
P1W,W,582003,0.8502,0.1337,0.0000,0.0000,0.9019,-0.5706,-9.9375,-0.1323,0.0400,-0.0388,0.0131
P1W,W,582023,0.8502,0.1324,0.0000,0.0000,0.9306,-0.4125,-9.5477,-0.1281,0.0099,-0.0501,0.0123
P1W,W,582043,0.8472,0.1342,0.0000,0.0000,0.8971,-0.4407,-9.6837,-0.1425,0.0322,-0.0705,0.0119
P1W,W,582063,0.8483,0.1333,0.0000,0.0000,0.9158,-0.4754,-9.7160,-0.1479,0.0393,-0.0406,0.0298
P1W,W,582083,0.8472,0.1337,0.0000,0.0000,0.8283,-0.3389,-10.0351,-0.1377,0.0357,-0.0578,0.0241
P1W,W,582103,0.8476,0.1367,0.0000,0.0000,0.9320,-0.3114,-9.8357,-0.2162,-0.0250,-0.0597,0.0037
P1W,W,582123,0.8483,0.1329,0.0000,0.0000,0.8785,-0.3359,-9.8286,-0.2371,-0.0189,-0.0862,-0.0003
P1W,W,582143,0.8445,0.1311,0.0000,0.0000,0.8771,-0.4161,-9.8854,-0.1269,0.0336,-0.0538,-0.0136
P1W,W,582163,0.8491,0.1229,0.0000,0.0000,0.8613,-0.4293,-9.8980,-0.1024,0.0148,-0.0377,-0.0224
P1W,W,582183,0.8479,0.1298,0.0000,0.0000,0.9354,-0.4209,-9.8381,-0.1042,-0.0081,-0.0200,-0.0588
P1W,W,582203,0.8498,0.1281,0.0000,0.0000,0.8594,-0.4359,-9.6130,-0.0389,-0.0115,-0.0441,-0.0564
P1W,W,582223,0.8495,0.1272,0.0000,0.0000,0.8713,-0.6550,-9.5891,-0.0587,0.0169,-0.0406,-0.0458
P1W,W,582243,0.8476,0.1216,0.0000,0.0000,0.8336,-0.6065,-9.8950,-0.0796,0.0405,0.0238,-0.0322
P1W,W,582263,0.8491,0.1229,0.0000,0.0000,0.8097,-0.4443,-9.9525,-0.1401,-0.0045,-0.0293,-0.0226
P1W,W,582283,0.8506,0.1203,0.0000,0.0000,0.8952,-0.5634,-9.8962,-0.2473,-0.0561,-0.0866,-0.0222
P1W,W,582303,0.8491,0.1177,0.0000,0.0000,0.7791,-0.5814,-9.6843,-0.1509,-0.0404,-0.0525,-0.0234
P1W,W,582323,0.8491,0.1181,0.0000,0.0000,0.8044,-0.6287,-9.8160,-0.0856,-0.0155,-0.0176,-0.0195
P1W,W,582343,0.8498,0.1130,0.0000,0.0000,0.7858,-0.4497,-9.7884,-0.0641,-0.0265,0.0155,-0.0192
P1W,W,582363,0.8483,0.1194,0.0000,0.0000,0.9029,-0.3790,-9.7483,-0.0569,-0.0469,-0.0508,-0.0215
P1W,W,582383,0.8502,0.1138,0.0000,0.0000,0.8106,-0.6227,-9.8657,0.0599,-0.0029,-0.0774,-0.0203
P1W,W,582403,0.8506,0.1112,0.0000,0.0000,0.8144,-0.5012,-9.6831,0.1150,0.0104,-0.0149,-0.0145
P1W,W,582423,0.8498,0.1108,0.0000,0.0000,0.8187,-0.4928,-9.8860,0.1150,0.0124,-0.0222,-0.0171
P1W,W,582443,0.8495,0.1138,0.0000,0.0000,0.7862,-0.4401,-9.8232,0.1293,-0.0229,-0.0346,-0.0326
P1W,W,582463,0.8498,0.1117,0.0000,0.0000,0.8087,-0.6011,-9.6609,0.1784,-0.0092,-0.0719,-0.0385
P1W,W,582483,0.8518,0.1117,0.0000,0.0000,0.8383,-0.8005,-9.7370,0.1257,0.0253,-0.0393,-0.0320
P1W,W,582503,0.8487,0.1134,0.0000,0.0000,0.9019,-0.7023,-9.7831,0.0449,0.0414,-0.0017,-0.0201
P1W,W,582523,0.8495,0.1138,0.0000,0.0000,0.8125,-0.6023,-9.8543,-0.0575,0.0312,-0.0462,-0.0156
P1W,W,582543,0.8495,0.1147,0.0000,0.0000,0.8073,-0.7922,-9.8304,-0.0689,0.0382,-0.0717,-0.0143
P1W,W,582563,0.8502,0.1138,0.0000,0.0000,0.7796,-0.6377,-9.8262,-0.0683,0.0261,-0.0561,0.0123
P1W,W,582583,0.8491,0.1181,0.0000,0.0000,0.8073,-0.7245,-9.7513,-0.1509,0.0049,-0.0468,0.0200
P1W,W,582603,0.8540,0.1160,0.0000,0.0000,0.7724,-0.5437,-9.6603,-0.2108,0.0089,-0.0365,0.0218
P1W,W,582623,0.8491,0.1143,0.0000,0.0000,0.7905,-0.4838,-9.7244,-0.2323,0.0352,-0.0568,0.0197
P1W,W,582643,0.8491,0.1147,0.0000,0.0000,0.7772,-0.5892,-9.8387,-0.2581,0.0372,-0.0809,0.0171
P1W,W,582663,0.8491,0.1130,0.0000,0.0000,0.8302,-0.4982,-9.8148,-0.2162,-0.0104,-0.0378,0.0203
P1W,W,582683,0.8487,0.1134,0.0000,0.0000,0.8847,-0.3179,-9.8094,-0.2359,-0.0450,-0.0552,0.0108
P1W,W,582703,0.8491,0.1125,0.0000,0.0000,0.7963,-0.3431,-9.7531,-0.1323,-0.0354,-0.0608,0.0051
P1W,W,582723,0.8483,0.1117,0.0000,0.0000,0.8125,-0.4221,-9.6992,-0.0060,0.0103,-0.0426,0.0015
P1W,W,582743,0.8483,0.1117,0.0000,0.0000,0.8082,-0.3036,-9.8872,0.0228,0.0039,-0.0438,-0.0095
P1W,W,582763,0.8556,0.1125,0.0000,0.0000,0.8369,-0.4113,-9.9052,0.0281,-0.0400,-0.0533,-0.0168
P1W,W,582783,0.8487,0.1112,0.0000,0.0000,0.8269,-0.4574,-9.7405,0.0281,-0.0366,-0.0665,-0.0226
P1W,W,582803,0.8464,0.1121,0.0000,0.0000,0.8426,-0.5113,-9.7932,0.0748,0.0013,-0.0719,-0.0205
P1W,W,582823,0.8491,0.1121,0.0000,0.0000,0.7829,-0.5527,-9.7441,0.0527,0.0027,-0.0560,-0.0211
P1W,W,582843,0.8495,0.1143,0.0000,0.0000,0.8436,-0.5042,-9.8783,0.0868,0.0028,-0.0545,-0.0203
P1W,W,582863,0.8498,0.1125,0.0000,0.0000,0.8971,-0.5317,-9.7040,0.0551,0.0019,-0.0361,-0.0163
P1W,W,582883,0.8472,0.1117,0.0000,0.0000,0.8001,-0.5952,-9.6483,0.1090,0.0718,-0.0153,-0.0129
P1W,W,582903,0.8464,0.1095,0.0000,0.0000,0.8603,-0.6425,-9.6699,0.0695,0.1168,-0.0013,-0.0262
P1W,W,582923,0.8476,0.1108,0.0000,0.0000,0.8417,-0.3934,-9.9214,0.0545,0.1138,0.0093,-0.0153
P1W,W,582943,0.8449,0.1104,0.0000,0.0000,0.9029,-0.5179,-10.0375,-0.0401,0.0185,-0.0357,-0.0301
P1W,W,582963,0.8441,0.1125,0.0000,0.0000,0.7925,-0.6862,-9.7322,-0.0329,-0.0059,-0.0357,-0.0228
P1W,W,582983,0.8441,0.1212,0.0000,0.0000,0.8900,-0.6131,-9.7016,-0.0683,0.0321,-0.0469,-0.0180
P1W,W,583003,0.8453,0.1099,0.0000,0.0000,0.9497,-0.6502,-9.7543,-0.1844,0.0405,-0.0590,-0.0141
P1W,W,583023,0.8438,0.1130,0.0000,0.0000,0.8909,-0.6359,-9.8908,-0.1665,0.0310,-0.0473,-0.0059
P1W,W,583043,0.8464,0.1138,0.0000,0.0000,0.8713,-0.6934,-9.8447,-0.1892,-0.0350,-0.0466,-0.0032
P1W,W,583063,0.8445,0.1034,0.0000,0.0000,0.9210,-0.6185,-9.6280,-0.1736,-0.0488,-0.0413,0.0084
P1W,W,583083,0.8453,0.1121,0.0000,0.0000,0.8665,-0.7023,-9.6412,-0.0820,0.0293,-0.0502,0.0200
P1W,W,583103,0.8445,0.1173,0.0000,0.0000,0.8508,-0.7592,-9.8848,-0.1641,0.0489,-0.0215,0.0224
P1W,W,583123,0.8434,0.1156,0.0000,0.0000,0.8809,-0.4850,-9.9262,-0.1006,-0.0040,0.0153,0.0268
P1W,W,583143,0.8472,0.1125,0.0000,0.0000,0.8981,-0.5820,-9.6944,-0.1239,-0.0237,-0.0273,0.0068
P1W,W,583163,0.8358,0.1160,0.0000,0.0000,0.9139,-0.5407,-9.8148,-0.0144,-0.0053,0.0027,0.0059
P1W,W,583183,0.8445,0.1138,0.0000,0.0000,0.8130,-0.4251,-9.7920,0.0234,-0.0332,-0.0171,0.0136
P1W,W,583203,0.8426,0.1143,0.0000,0.0000,0.9153,-0.5263,-9.7244,-0.0353,-0.0477,-0.0906,0.0049
P1W,W,583223,0.8449,0.1099,0.0000,0.0000,0.9005,-0.7011,-9.7543,-0.0132,-0.0513,-0.0466,-0.0089
P1W,W,583243,0.8445,0.1181,0.0000,0.0000,0.8838,-0.5982,-9.7681,0.0467,-0.0238,0.0180,0.0087
P1W,W,583263,0.8483,0.1138,0.0000,0.0000,0.8828,-0.3910,-9.8136,0.1425,-0.0007,0.0196,0.0073
P1W,W,583283,0.8460,0.1151,0.0000,0.0000,0.8513,-0.3856,-9.9064,0.1024,-0.0288,-0.0624,-0.0024
P1W,W,583303,0.8472,0.1156,0.0000,0.0000,0.9038,-0.5341,-9.8639,0.0784,-0.0721,-0.0528,-0.0045
P1W,W,583323,0.8430,0.1130,0.0000,0.0000,0.9411,-0.5521,-9.5597,0.0335,-0.0337,-0.0092,-0.0059
P1W,W,583343,0.8460,0.1125,0.0000,0.0000,0.8895,-0.4341,-9.7831,0.1054,0.0449,-0.0085,-0.0124
P1W,W,583363,0.8479,0.1169,0.0000,0.0000,0.8947,-0.5059,-9.7998,0.0790,0.0502,-0.0454,-0.0171
P1W,W,583383,0.8468,0.1160,0.0000,0.0000,0.9186,-0.5634,-9.8962,0.0635,0.0360,-0.0400,-0.0081
P1W,W,583403,0.8464,0.1212,0.0000,0.0000,0.8536,-0.6598,-9.7627,0.0048,0.0117,-0.0358,-0.0033
P1W,W,583423,0.8491,0.1143,0.0000,0.0000,0.8933,-0.6000,-9.7687,0.0407,0.0418,-0.0075,0.0043
P1W,W,583443,0.8487,0.1121,0.0000,0.0000,0.9158,-0.4640,-9.7729,-0.0371,0.0281,-0.0342,-0.0007
P1W,W,583463,0.8483,0.1147,0.0000,0.0000,0.8278,-0.6203,-9.7663,-0.0653,0.0242,-0.0831,0.0013
P1W,W,583483,0.8502,0.1151,0.0000,0.0000,0.8766,-0.6167,-9.7160,-0.0623,0.0241,-0.0389,0.0039
P1W,W,583503,0.8483,0.1134,0.0000,0.0000,0.7805,-0.5191,-9.7513,-0.0497,0.0277,-0.0135,0.0151
P1W,W,583523,0.8483,0.1156,0.0000,0.0000,0.8990,-0.4610,-9.8549,-0.1036,0.0280,-0.0260,0.0184
P1W,W,583543,0.8502,0.1099,0.0000,0.0000,0.8312,-0.3970,-9.8286,-0.0982,-0.0029,-0.0378,0.0065
P1W,W,583563,0.8460,0.1151,0.0000,0.0000,0.8775,-0.4676,-9.7693,-0.0431,-0.0037,-0.0493,0.0056
P1W,W,583583,0.8457,0.1134,0.0000,0.0000,0.8708,-0.4970,-9.7675,-0.0856,-0.0245,-0.0040,0.0119
P1W,W,583603,0.8483,0.1156,0.0000,0.0000,0.7667,-0.3646,-9.7543,0.0275,-0.0124,-0.0027,-0.0008
P1W,W,583623,0.8457,0.1143,0.0000,0.0000,0.7992,-0.4395,-9.7675,0.0413,-0.0199,-0.0107,-0.0141
P1W,W,583643,0.8476,0.1147,0.0000,0.0000,0.7681,-0.3754,-9.7621,0.0653,0.0016,-0.0298,-0.0183
P1W,W,583663,0.8460,0.1138,0.0000,0.0000,0.8742,-0.5317,-9.8807,0.0617,0.0204,-0.0522,-0.0151
P1W,W,583683,0.8472,0.1177,0.0000,0.0000,0.7920,-0.5580,-9.7813,-0.0329,-0.0141,-0.0436,-0.0165
P1W,W,583703,0.8506,0.1169,0.0000,0.0000,0.7719,-0.6473,-9.6531,-0.0299,0.0091,-0.0372,-0.0065
P1W,W,583723,0.8514,0.1156,0.0000,0.0000,0.8006,-0.5467,-9.7501,0.0132,0.0341,-0.0352,-0.0031
P1W,W,583743,0.8502,0.1143,0.0000,0.0000,0.7767,-0.5449,-9.9543,0.0066,0.0289,-0.0536,-0.0081
P1W,W,583763,0.8556,0.1151,0.0000,0.0000,0.7576,-0.5245,-9.8268,0.0413,-0.0144,-0.0388,-0.0175
P1W,W,583783,0.8525,0.1117,0.0000,0.0000,0.7882,-0.5042,-9.7166,0.0407,-0.0284,-0.0586,-0.0172
P1W,W,583803,0.8521,0.1169,0.0000,0.0000,0.8350,-0.6065,-9.6687,0.0545,0.0141,-0.0294,-0.0059
P1W,W,583823,0.8502,0.1169,0.0000,0.0000,0.8871,-0.4832,-9.8310,0.0216,0.0382,-0.0124,-0.0052
P1W,W,583843,0.8518,0.1156,0.0000,0.0000,0.7858,-0.4982,-9.9292,-0.0180,0.0260,-0.0390,-0.0065
P1W,W,583863,0.8479,0.1186,0.0000,0.0000,0.7925,-0.6239,-9.9345,-0.0245,-0.0252,-0.0336,-0.0159
P1W,W,583883,0.8525,0.1143,0.0000,0.0000,0.8125,-0.4868,-9.7052,-0.0730,-0.0521,-0.0338,-0.0187
P1W,W,583903,0.8502,0.1134,0.0000,0.0000,0.7776,-0.5904,-9.7537,-0.0365,-0.0005,-0.0132,-0.0145
P1W,W,583923,0.8506,0.1173,0.0000,0.0000,0.8689,-0.4449,-9.8842,0.0084,0.0177,-0.0112,-0.0043
P1W,W,583943,0.8514,0.1194,0.0000,0.0000,0.7614,-0.5065,-9.7621,0.0174,-0.0056,-0.0841,-0.0213
P1W,W,583963,0.8483,0.1173,0.0000,0.0000,0.8642,-0.6197,-9.8597,0.0317,-0.0257,-0.0217,-0.0230
P1W,W,583983,0.8506,0.1134,0.0000,0.0000,0.8847,-0.5095,-9.6519,0.0521,-0.0292,-0.0180,-0.0165
P1W,W,584003,0.8506,0.1177,0.0000,0.0000,0.7585,-0.5413,-9.7364,0.1683,0.0304,-0.0136,-0.0213
P1W,W,584023,0.8491,0.1151,0.0000,0.0000,0.8331,-0.4664,-9.7801,0.1156,0.0349,-0.0337,-0.0217
P1W,W,584043,0.8518,0.1151,0.0000,0.0000,0.8321,-0.4568,-9.9190,0.0856,0.0020,-0.0711,-0.0244
P1W,W,584063,0.8518,0.1169,0.0000,0.0000,0.9258,-0.6532,-9.8405,0.0222,-0.0244,-0.0614,-0.0212
P1W,W,584083,0.8506,0.1181,0.0000,0.0000,0.8651,-0.7694,-9.6190,0.0114,0.0209,-0.0149,-0.0135
P1W,W,584103,0.8533,0.1164,0.0000,0.0000,0.8570,-0.4221,-9.8507,0.0240,0.0429,-0.0352,0.0023
P1W,W,584123,0.8518,0.1190,0.0000,0.0000,0.8613,-0.6449,-9.8663,-0.0473,0.0215,-0.0930,-0.0092
P1W,W,584143,0.8518,0.1177,0.0000,0.0000,0.7886,-0.6305,-9.9118,-0.0371,-0.0061,-0.0456,0.0008
P1W,W,584163,0.8510,0.1160,0.0000,0.0000,0.8685,-0.5059,-9.7669,0.0401,-0.0113,-0.0358,0.0087
P1W,W,584183,0.8529,0.1177,0.0000,0.0000,0.8589,-0.6059,-9.7070,0.0671,0.0031,-0.0759,0.0109
P1W,W,584203,0.8518,0.1177,0.0000,0.0000,0.8943,-0.5592,-9.7819,0.0736,0.0226,-0.0442,0.0183
P1W,W,584223,0.8514,0.1164,0.0000,0.0000,0.8718,-0.4539,-9.8220,0.1659,0.0350,-0.0221,0.0148
P1W,W,584243,0.8518,0.1086,0.0000,0.0000,0.9014,-0.3700,-9.8842,0.0904,-0.0097,-0.0518,-0.0025
P1W,W,584263,0.8514,0.1151,0.0000,0.0000,0.8986,-0.5473,-9.7878,0.0210,-0.0422,-0.0297,-0.0127
P1W,W,584283,0.8487,0.1143,0.0000,0.0000,0.8866,-0.4580,-9.7136,0.0611,0.0039,-0.0115,-0.0123
P1W,W,584303,0.8502,0.1143,0.0000,0.0000,0.9086,-0.4958,-9.7609,0.0102,0.0177,-0.0280,-0.0232
P1W,W,584323,0.8514,0.1156,0.0000,0.0000,0.8144,-0.5670,-9.8519,0.0359,0.0197,-0.0216,-0.0222
P1W,W,584343,0.8510,0.1134,0.0000,0.0000,0.8513,-0.5083,-9.7735,-0.0084,-0.0065,-0.0260,-0.0224
P1W,W,584363,0.8495,0.1212,0.0000,0.0000,0.8694,-0.6455,-9.8034,0.0078,-0.0043,-0.0268,-0.0224
P1W,W,584383,0.8525,0.1169,0.0000,0.0000,0.8861,-0.6185,-9.6759,0.0120,0.0039,-0.0156,-0.0278
P1W,W,584403,0.8498,0.1169,0.0000,0.0000,0.8881,-0.6149,-9.8777,0.0150,0.0410,0.0048,-0.0187
P1W,W,584423,0.8495,0.1151,0.0000,0.0000,0.8493,-0.5293,-9.7789,0.0545,0.0072,-0.0151,-0.0179
P1W,W,584443,0.8495,0.1186,0.0000,0.0000,0.8063,-0.6125,-9.8453,0.0629,0.0092,-0.0369,-0.0177
P1W,W,584463,0.8491,0.1203,0.0000,0.0000,0.8149,-0.5155,-9.9148,0.0341,-0.0273,-0.0330,-0.0151
P1W,W,584483,0.8502,0.1199,0.0000,0.0000,0.7939,-0.6485,-9.6208,-0.0006,-0.0357,-0.0841,-0.0121
P1W,W,584503,0.8495,0.1199,0.0000,0.0000,0.9034,-0.7197,-9.6262,0.0593,0.0262,-0.0301,-0.0015
P1W,W,584523,0.8502,0.1255,0.0000,0.0000,0.8823,-0.4790,-9.8573,0.1198,0.0489,-0.0309,0.0052
P1W,W,584543,0.8495,0.1238,0.0000,0.0000,0.8828,-0.5113,-9.9327,0.1251,-0.0072,-0.0613,-0.0048
P1W,W,584563,0.8487,0.1225,0.0000,0.0000,0.9349,-0.6143,-9.7328,0.1066,-0.0222,-0.0481,-0.0052
P1W,W,584583,0.8491,0.1220,0.0000,0.0000,0.8732,-0.5161,-9.7645,0.0892,-0.0104,-0.0288,0.0032
P1W,W,584603,0.8487,0.1281,0.0000,0.0000,0.9186,-0.4748,-9.7974,0.1581,0.0056,-0.0220,0.0077
P1W,W,584623,0.8483,0.1329,0.0000,0.0000,0.8904,-0.3036,-9.7651,0.0611,-0.0032,-0.0402,-0.0145
P1W,W,584643,0.8449,0.1316,0.0000,0.0000,0.8369,-0.4868,-9.7376,0.0222,0.0008,-0.0457,-0.0305
P1W,W,584663,0.8434,0.1320,0.0000,0.0000,0.8665,-0.5042,-9.7783,0.0599,0.0116,-0.0221,-0.0261
P1W,W,584683,0.8441,0.1337,0.0000,0.0000,0.7963,-0.5137,-9.7142,0.1066,0.0289,-0.0222,-0.0252
P1W,W,584703,0.8445,0.1272,0.0000,0.0000,0.8928,-0.4622,-9.8465,0.0581,0.0436,-0.0469,-0.0269
P1W,W,584723,0.8415,0.1337,0.0000,0.0000,0.8130,-0.5233,-9.8860,0.0293,0.0123,-0.0558,-0.0346
P1W,W,584743,0.8449,0.1354,0.0000,0.0000,0.8030,-0.5538,-9.7902,0.0928,0.0159,-0.0209,-0.0376
P1W,W,584763,0.8457,0.1367,0.0000,0.0000,0.8627,-0.5353,-9.7447,0.0958,0.0222,-0.0199,-0.0362
P1W,W,584783,0.8434,0.1372,0.0000,0.0000,0.8689,-0.5700,-9.8082,0.1263,0.0502,-0.0396,-0.0441
P1W,W,584803,0.8380,0.1367,0.0000,0.0000,0.9048,-0.6059,-9.8705,0.0269,0.0105,-0.0265,-0.0544
P1W,W,584823,0.8453,0.1385,0.0000,0.0000,0.8603,-0.6526,-9.6370,0.1425,0.0005,-0.0380,-0.0457
P1W,W,584843,0.8464,0.1393,0.0000,0.0000,0.7944,-0.6987,-9.8513,0.0844,-0.0009,-0.0517,-0.0446
P1W,W,584863,0.8457,0.1380,0.0000,0.0000,0.8154,-0.7149,-9.7932,0.0982,-0.0301,-0.0369,-0.0426
P1W,W,584883,0.8457,0.1424,0.0000,0.0000,0.7667,-0.7245,-9.7220,0.1868,-0.0023,-0.0294,-0.0406
P1W,W,584903,0.8464,0.1415,0.0000,0.0000,0.8020,-0.7856,-9.8435,0.1425,-0.0097,-0.0620,-0.0245
P1W,W,584923,0.8468,0.1428,0.0000,0.0000,0.8020,-0.9933,-9.6998,0.1287,-0.0349,-0.0807,-0.0193
P1W,W,584943,0.8468,0.1398,0.0000,0.0000,0.7896,-1.0340,-9.6429,0.1000,-0.0242,-0.0199,-0.0233
P1W,W,584963,0.8460,0.1415,0.0000,0.0000,0.7839,-0.9185,-9.5992,0.1760,0.0405,0.0039,-0.0286
P1W,W,584983,0.8476,0.1402,0.0000,0.0000,0.8278,-0.9562,-9.6908,0.0892,0.0827,-0.0241,-0.0161
P1W,W,585003,0.8476,0.1350,0.0000,0.0000,0.7796,-0.9293,-9.7352,0.0898,0.0786,-0.0164,0.0017
P1W,W,585023,0.8468,0.1393,0.0000,0.0000,0.7958,-0.8658,-9.6938,0.0425,0.0537,-0.0115,0.0189
P1W,W,585043,0.8495,0.1437,0.0000,0.0000,0.7929,-0.6975,-9.7860,0.0371,0.0657,-0.0229,0.0176
P1W,W,585063,0.8460,0.1385,0.0000,0.0000,0.8799,-0.9083,-9.6783,-0.0090,0.0490,-0.0340,0.0155
P1W,W,585083,0.8476,0.1437,0.0000,0.0000,0.8484,-0.6544,-9.8178,0.0084,0.0621,0.0004,0.0296
P1W,W,585103,0.8479,0.1393,0.0000,0.0000,0.8054,-0.6131,-9.8160,-0.0078,0.0564,-0.0212,0.0254
P1W,W,585123,0.8472,0.1415,0.0000,0.0000,0.7891,-0.6359,-9.8004,-0.0030,0.0505,-0.0293,0.0274
P1W,W,585143,0.8449,0.1393,0.0000,0.0000,0.8226,-0.7011,-9.8274,0.0683,0.0518,-0.0180,0.0394
P1W,W,585163,0.8468,0.1393,0.0000,0.0000,0.7834,-0.5521,-9.7579,0.0635,0.0376,-0.0069,0.0442
P1W,W,585183,0.8460,0.1389,0.0000,0.0000,0.8106,-0.4048,-9.8334,0.1072,0.0727,-0.0059,0.0294
P1W,W,585203,0.8491,0.1376,0.0000,0.0000,0.8202,-0.3395,-9.8705,0.0479,0.0401,-0.0604,0.0131
P1W,W,585223,0.8464,0.1424,0.0000,0.0000,0.8455,-0.5161,-9.7082,-0.0204,0.0577,-0.0598,0.0033
P1W,W,585243,0.8464,0.1372,0.0000,0.0000,0.8699,-0.5377,-9.7950,-0.1096,0.0678,-0.0104,0.0172
P1W,W,585263,0.8441,0.1389,0.0000,0.0000,0.8058,-0.3605,-9.7525,-0.1275,0.0773,-0.0260,0.0160
P1W,W,585283,0.8479,0.1424,0.0000,0.0000,0.8130,-0.4598,-9.8902,-0.1659,0.1075,-0.0452,0.0033
P1W,W,585303,0.8483,0.1402,0.0000,0.0000,0.9014,-0.3850,-9.9519,-0.1706,0.0638,-0.0369,-0.0016
P1W,W,585323,0.8457,0.1454,0.0000,0.0000,0.8904,-0.4479,-9.7783,-0.1629,0.0410,-0.0830,0.0004
P1W,W,585343,0.8457,0.1398,0.0000,0.0000,0.8603,-0.5766,-9.8202,-0.1754,0.0342,-0.0803,-0.0039
P1W,W,585363,0.8453,0.1437,0.0000,0.0000,0.8699,-0.6305,-9.6495,-0.0263,0.0440,-0.0358,-0.0044
P1W,W,585383,0.8449,0.1398,0.0000,0.0000,0.7528,-0.4796,-9.8453,-0.0808,0.0312,-0.0569,0.0041
P1W,W,585403,0.8460,0.1411,0.0000,0.0000,0.9167,-0.6155,-9.8190,-0.1413,0.0123,-0.0549,0.0009
P1W,W,585423,0.8438,0.1372,0.0000,0.0000,0.8656,-0.3694,-9.8950,-0.1910,0.0370,-0.1078,0.0221
P1W,W,585443,0.8453,0.1549,0.0000,0.0000,0.8732,-0.6562,-9.7256,-0.3856,0.0440,-0.1988,0.0480
P1W,W,585463,0.8426,0.1735,0.0000,0.0000,0.9134,-0.9173,-9.8064,-0.4521,0.0533,-0.0977,0.0765
P1W,W,585483,0.8430,0.1835,0.0000,0.0000,0.9048,-0.2898,-9.4777,-0.3688,0.0469,-0.0470,0.0987
P1W,W,585503,0.8468,0.1813,0.0000,0.0000,0.8780,-0.3808,-10.0770,-0.2724,0.1118,-0.1331,0.0508
P1W,W,585523,0.8483,0.1787,0.0000,0.0000,0.8216,-0.3149,-10.0082,-0.2389,0.0284,-0.1150,-0.0141
P1W,W,585543,0.8502,0.1679,0.0000,0.0000,0.8895,-0.5365,-9.6729,-0.0964,-0.0060,-0.0707,-0.0069
P1W,W,585563,0.8510,0.1631,0.0000,0.0000,0.7958,-0.4149,-9.7831,-0.1677,-0.0636,-0.0233,-0.0108
P1W,W,585583,0.8510,0.1614,0.0000,0.0000,0.9521,-0.0928,-9.7621,-0.1856,-0.0769,-0.1284,-0.0197
P1W,W,585603,0.8502,0.1610,0.0000,0.0000,0.9014,-0.6850,-9.6651,-0.3030,-0.1058,-0.2076,-0.0426
P1W,W,585623,0.8491,0.1545,0.0000,0.0000,0.8981,-0.5652,-9.6106,-0.1485,-0.0573,-0.0837,-0.0292
P1W,W,585643,0.8487,0.1450,0.0000,0.0000,0.9134,-0.7053,-9.8256,-0.1778,-0.0410,-0.0650,-0.0017
P1W,W,585663,0.8464,0.1385,0.0000,0.0000,0.8728,-0.1659,-10.1693,-0.0581,-0.0787,-0.0328,-0.0171
P1W,W,585683,0.8460,0.1359,0.0000,0.0000,0.8852,-0.4862,-9.8705,-0.0557,-0.2108,-0.0994,-0.0458
P1W,W,585703,0.8453,0.1333,0.0000,0.0000,0.9043,-0.4832,-9.5208,0.2245,-0.1039,-0.0533,-0.0401
P1W,W,585723,0.8411,0.1329,0.0000,0.0000,0.8336,-0.4988,-9.7723,0.4802,0.0221,-0.0422,-0.0373
P1W,W,585743,0.8468,0.1354,0.0000,0.0000,0.7772,-0.4772,-9.7896,0.6317,0.0185,-0.0524,-0.0649
P1W,W,585763,0.8449,0.1307,0.0000,0.0000,0.9014,-0.7556,-9.6406,0.5179,-0.0020,-0.0823,-0.0747
P1W,W,585783,0.8479,0.1303,0.0000,0.0000,0.9430,-0.8365,-9.7136,0.3431,0.0322,-0.0910,-0.0665
P1W,W,585803,0.8502,0.1311,0.0000,0.0000,0.8116,-1.1233,-9.6477,0.1311,0.0577,-0.0127,-0.0401
P1W,W,585823,0.8445,0.1307,0.0000,0.0000,0.8350,-0.7251,-10.0549,0.0659,0.1005,0.0689,0.0008
P1W,W,585843,0.8457,0.1229,0.0000,0.0000,0.9034,-0.7239,-9.9154,-0.1359,0.0195,-0.0424,-0.0008
P1W,W,585863,0.8434,0.1281,0.0000,0.0000,0.8775,-1.0532,-9.4298,-0.1198,0.0990,-0.0722,-0.0232
P1W,W,585883,0.8426,0.1229,0.0000,0.0000,0.9129,-0.9149,-9.7633,-0.2952,0.0919,-0.0163,-0.0115
P1W,W,585903,0.8441,0.1251,0.0000,0.0000,0.8355,-1.0239,-9.4825,-0.2892,0.0552,-0.0325,-0.0031
P1W,W,585923,0.8445,0.1238,0.0000,0.0000,0.9062,-0.8909,-10.1812,-0.3281,0.0015,0.0148,0.0085
P1W,W,585943,0.8510,0.1264,0.0000,0.0000,0.8374,-0.8880,-9.9280,-0.2221,-0.1026,0.0139,0.0175
P1W,W,585963,0.8438,0.1125,0.0000,0.0000,0.8890,-0.8161,-9.3579,-0.0587,-0.0165,0.0179,0.0671
P1W,W,585983,0.8457,0.1229,0.0000,0.0000,0.8417,-0.5778,-9.7088,0.0204,0.0714,0.0023,0.0661
P1W,W,586003,0.8449,0.1216,0.0000,0.0000,0.8450,-0.5395,-9.8884,0.0401,0.0478,-0.0035,0.0572
P1W,W,586023,0.8445,0.1169,0.0000,0.0000,0.9086,-0.2401,-10.1112,0.0671,-0.0244,-0.0205,0.0516
P1W,W,586043,0.8449,0.1207,0.0000,0.0000,0.9196,-0.4305,-9.7968,-0.0257,-0.0814,-0.0496,0.0316
P1W,W,586063,0.8457,0.1220,0.0000,0.0000,0.7710,-0.3856,-9.5280,0.1473,0.0425,0.0140,0.0348
P1W,W,586083,0.8453,0.1156,0.0000,0.0000,0.9158,-0.2132,-9.8405,0.0018,0.0899,-0.0268,0.0277
P1W,W,586103,0.8453,0.1160,0.0000,0.0000,0.8455,-0.5916,-10.0339,-0.2371,0.0501,-0.0537,0.0125
P1W,W,586123,0.8457,0.1164,0.0000,0.0000,0.8144,-0.2868,-9.9220,-0.2353,-0.0444,-0.0296,0.0292
P1W,W,586143,0.8479,0.1151,0.0000,0.0000,0.8202,-0.4275,-9.7280,-0.3000,-0.0821,-0.0648,0.0087
P1W,W,586163,0.8487,0.1130,0.0000,0.0000,0.9057,-0.3341,-9.3651,-0.2305,-0.0320,-0.0513,0.0107
P1W,W,586183,0.8460,0.1138,0.0000,0.0000,0.8455,-0.4407,-9.8387,-0.1221,0.0574,-0.0180,0.0052
P1W,W,586203,0.8441,0.1151,0.0000,0.0000,0.8269,-0.4503,-9.7633,-0.0551,0.0570,0.0032,0.0117
P1W,W,586223,0.8487,0.1156,0.0000,0.0000,0.8116,-0.2760,-9.8639,-0.0904,0.0246,0.0031,0.0036
P1W,W,586243,0.8430,0.1130,0.0000,0.0000,0.8025,-0.4449,-9.7777,-0.2215,0.0109,-0.0482,-0.0179
P1W,W,586263,0.8457,0.1190,0.0000,0.0000,0.8202,-0.4485,-9.7405,-0.2718,0.0053,-0.0249,-0.0249
P1W,W,586283,0.8449,0.1134,0.0000,0.0000,0.8226,-0.4568,-9.7555,-0.2718,0.0169,-0.0460,-0.0238
P1W,W,586303,0.8457,0.1220,0.0000,0.0000,0.8900,-0.5221,-9.8501,-0.1748,0.0310,-0.0197,-0.0217
P1W,W,586323,0.8426,0.1130,0.0000,0.0000,0.8752,-0.3383,-9.8651,-0.0419,-0.0081,-0.0377,-0.0175
P1W,W,586343,0.8434,0.1143,0.0000,0.0000,0.7982,-0.4293,-9.8531,0.0240,-0.0313,-0.0497,-0.0252
P1W,W,586363,0.8445,0.1169,0.0000,0.0000,0.8498,-0.4185,-9.7112,0.1257,-0.0348,-0.0468,-0.0317
P1W,W,586383,0.8426,0.1233,0.0000,0.0000,0.8818,-0.5065,-9.7908,0.1431,-0.0241,-0.0508,-0.0417
P1W,W,586403,0.8430,0.1164,0.0000,0.0000,0.8393,-0.6233,-9.8956,0.2006,0.0089,-0.0393,-0.0458
P1W,W,586423,0.8445,0.1181,0.0000,0.0000,0.8001,-0.5892,-9.9022,0.1551,-0.0076,-0.0079,-0.0452
P1W,W,586443,0.8403,0.1156,0.0000,0.0000,0.9014,-0.4395,-9.7849,0.1766,0.0073,-0.0296,-0.0385
P1W,W,586463,0.8434,0.1207,0.0000,0.0000,0.8144,-0.6281,-9.7298,0.0335,0.0273,-0.0707,-0.0326
P1W,W,586483,0.8403,0.1156,0.0000,0.0000,0.7389,-0.6389,-9.8435,-0.0838,0.0404,-0.0055,-0.0330
P1W,W,586503,0.8418,0.1173,0.0000,0.0000,0.8254,-0.4000,-9.7783,-0.1162,0.0172,-0.0044,-0.0332
P1W,W,586523,0.8422,0.1117,0.0000,0.0000,0.9096,-0.5485,-9.6657,-0.1371,0.0160,-0.0807,-0.0464
P1W,W,586543,0.8411,0.1125,0.0000,0.0000,0.9425,-0.6275,-9.6064,-0.1245,0.0199,-0.0634,-0.0525
P1W,W,586563,0.8487,0.1095,0.0000,0.0000,0.9354,-0.7706,-9.6908,-0.1012,0.0077,-0.0757,-0.0358
P1W,W,586583,0.8388,0.1030,0.0000,0.0000,0.8312,-0.8706,-9.9765,-0.0964,0.0151,0.0061,-0.0273
P1W,W,586603,0.8396,0.0952,0.0000,0.0000,0.9077,-0.5934,-10.1309,-0.1042,-0.0284,0.0077,-0.0028
P1W,W,586623,0.8399,0.0857,0.0000,0.0000,0.8914,-0.7035,-9.9723,-0.0557,-0.0878,-0.0454,0.0185
P1W,W,586643,0.8396,0.0831,0.0000,0.0000,0.9143,-0.7490,-9.4298,-0.0689,-0.0766,-0.0513,0.0200
P1W,W,586663,0.8369,0.0771,0.0000,0.0000,0.9077,-0.4700,-9.4448,0.1611,0.1033,-0.0357,0.0201
P1W,W,586683,0.8373,0.0732,0.0000,0.0000,0.9172,-0.7437,-10.0561,0.0407,0.0990,-0.0955,0.0052
P1W,W,586703,0.8369,0.0771,0.0000,0.0000,0.8388,-0.7263,-9.8447,-0.0850,-0.0348,-0.0360,-0.0172
P1W,W,586723,0.8388,0.0727,0.0000,0.0000,0.9292,-0.5209,-9.5891,-0.0844,-0.0508,0.0229,-0.0007
P1W,W,586743,0.8396,0.0719,0.0000,0.0000,0.9091,-0.5479,-9.8854,-0.0479,-0.0099,-0.0644,0.0161
P1W,W,586763,0.8350,0.0714,0.0000,0.0000,0.8881,-0.7431,-9.8663,-0.0766,-0.0320,-0.0294,0.0144
P1W,W,586783,0.8392,0.0706,0.0000,0.0000,0.8833,-0.5790,-9.8842,0.0281,0.0012,-0.0088,0.0092
P1W,W,586803,0.8392,0.0585,0.0000,0.0000,0.9210,-0.5964,-9.7603,0.0898,-0.0270,-0.0774,0.0028
P1W,W,586823,0.8365,0.0637,0.0000,0.0000,0.9163,-0.7443,-9.5340,0.1473,-0.0133,-0.0060,0.0179
P1W,W,586843,0.8346,0.0589,0.0000,0.0000,0.9402,-0.4682,-9.7819,0.1563,0.0043,-0.0068,0.0159
P1W,W,586863,0.8365,0.0515,0.0000,0.0000,0.8938,-0.6514,-9.9178,0.0072,-0.0353,-0.0669,0.0063
P1W,W,586883,0.8449,0.0472,0.0000,0.0000,0.8866,-0.6467,-9.7753,-0.0144,-0.0578,-0.0476,-0.0033
P1W,W,586903,0.8369,0.0355,0.0000,0.0000,0.8771,-0.5670,-9.7693,0.0910,-0.0080,-0.0477,-0.0031
P1W,W,586923,0.8365,0.0321,0.0000,0.0000,0.9325,-0.6389,-9.5974,0.2012,0.0374,-0.0159,-0.0140
P1W,W,586943,0.8396,0.0265,0.0000,0.0000,0.8833,-0.6287,-9.8609,0.1054,0.0195,0.0334,-0.0321
P1W,W,586963,0.8380,0.0230,0.0000,0.0000,0.9186,-0.4551,-9.9567,0.1114,-0.0092,-0.0077,-0.0270
P1W,W,586983,0.8392,0.0234,0.0000,0.0000,0.8393,-0.6485,-9.6400,0.0132,-0.0212,-0.0416,-0.0225
P1W,W,587003,0.8384,0.0161,0.0000,0.0000,0.8522,-0.6844,-9.8256,0.1371,0.0389,-0.0250,-0.0017
P1W,W,587023,0.8369,0.0217,0.0000,0.0000,0.8756,-0.5694,-9.8345,0.1138,0.0180,-0.0258,-0.0068
P1W,W,587043,0.8380,0.0191,0.0000,0.0000,0.8761,-0.7035,-9.7849,0.0293,0.0252,-0.0288,-0.0129
P1W,W,587063,0.8365,0.0208,0.0000,0.0000,0.9526,-0.6586,-9.8022,0.0240,0.0470,-0.0389,0.0031
P1W,W,587083,0.8399,0.0117,0.0000,0.0000,0.8622,-0.7149,-9.7944,-0.0449,0.0413,-0.0480,0.0013
P1W,W,587103,0.8365,0.0221,0.0000,0.0000,0.8383,-0.5760,-9.7890,-0.1090,0.0364,-0.0115,0.0139
P1W,W,587123,0.8384,0.0213,0.0000,0.0000,0.8054,-0.3455,-9.7783,-0.0407,0.0582,-0.0381,0.0278
P1W,W,587143,0.8377,0.0208,0.0000,0.0000,0.8517,-0.5203,-9.8842,-0.0862,0.0408,-0.0726,0.0099
P1W,W,587163,0.8377,0.0243,0.0000,0.0000,0.8426,-0.5024,-9.8543,-0.1090,-0.0108,-0.0187,-0.0007
P1W,W,587183,0.8373,0.0230,0.0000,0.0000,0.8560,-0.3964,-9.6082,-0.0371,-0.0196,-0.0310,-0.0031
P1W,W,587203,0.8342,0.0239,0.0000,0.0000,0.8020,-0.4724,-9.7154,0.0772,0.0176,-0.0494,-0.0171
P1W,W,587223,0.8365,0.0265,0.0000,0.0000,0.8101,-0.4551,-9.8046,0.1760,0.0612,-0.0755,-0.0152
P1W,W,587243,0.8335,0.0269,0.0000,0.0000,0.8259,-0.5802,-9.8777,0.1641,0.0722,-0.0667,-0.0111
P1W,W,587263,0.8342,0.0282,0.0000,0.0000,0.8240,-0.5065,-9.8932,0.0389,0.0292,-0.0739,-0.0077
P1W,W,587283,0.8338,0.0256,0.0000,0.0000,0.8331,-0.5940,-9.6543,0.0102,0.0268,-0.0538,-0.0161
P1W,W,587303,0.8331,0.0273,0.0000,0.0000,0.8173,-0.4155,-9.8034,-0.0066,0.0517,0.0132,-0.0161
P1W,W,587323,0.8300,0.0273,0.0000,0.0000,0.9206,-0.3575,-9.8316,-0.0192,0.0746,-0.0432,-0.0179
P1W,W,587343,0.8342,0.0290,0.0000,0.0000,0.9120,-0.7443,-9.8142,-0.1036,0.0441,-0.0354,-0.0274
P1W,W,587363,0.8323,0.0282,0.0000,0.0000,0.8097,-0.6143,-9.9094,-0.1215,-0.0414,0.0682,-0.0100
P1W,W,587383,0.8342,0.0295,0.0000,0.0000,0.8422,-0.5335,-9.6160,-0.1736,-0.0863,0.0268,-0.0089
P1W,W,587403,0.8323,0.0282,0.0000,0.0000,0.8407,-0.4563,-9.6741,-0.0240,-0.0218,-0.0230,-0.0272
P1W,W,587423,0.8331,0.0282,0.0000,0.0000,0.8613,-0.6209,-9.8669,0.0395,0.0100,-0.0314,-0.0449
P1W,W,587443,0.8331,0.0295,0.0000,0.0000,0.8570,-0.6700,-9.7819,0.0934,-0.0037,-0.0081,-0.0598
P1W,W,587463,0.8350,0.0269,0.0000,0.0000,0.8656,-0.6562,-9.7274,0.0120,-0.0020,0.0368,-0.0707
P1W,W,587483,0.8354,0.0256,0.0000,0.0000,0.9053,-0.6377,-9.8555,-0.0078,0.0245,-0.0067,-0.0437
P1W,W,587503,0.8323,0.0282,0.0000,0.0000,0.8608,-0.6335,-9.6837,-0.1102,0.0081,-0.0115,-0.0424
P1W,W,587523,0.8312,0.0269,0.0000,0.0000,0.8350,-0.6437,-9.7555,-0.0671,0.0529,-0.0215,-0.0438
P1W,W,587543,0.8316,0.0282,0.0000,0.0000,0.8747,-0.5832,-9.9585,-0.1054,-0.0057,-0.0521,-0.0466
P1W,W,587563,0.8342,0.0256,0.0000,0.0000,0.8708,-0.8646,-9.6603,-0.0677,0.0109,-0.0333,-0.0394
P1W,W,587583,0.8335,0.0234,0.0000,0.0000,0.8274,-0.6868,-9.8567,-0.0701,0.0115,0.0128,-0.0237
P1W,W,587603,0.8300,0.0230,0.0000,0.0000,0.8446,-0.6467,-9.7052,0.0036,-0.0119,-0.0096,-0.0203
P1W,W,587623,0.8323,0.0230,0.0000,0.0000,0.8560,-0.7245,-9.7531,0.0216,0.0177,-0.0469,-0.0253
P1W,W,587643,0.8312,0.0252,0.0000,0.0000,0.9091,-0.8275,-9.7525,0.0030,0.0225,-0.0196,-0.0132
P1W,W,587663,0.8316,0.0303,0.0000,0.0000,0.9655,-0.7335,-9.7974,0.0054,0.0234,-0.0060,0.0053
P1W,W,587683,0.8319,0.0355,0.0000,0.0000,0.8995,-0.7125,-9.8334,-0.0671,-0.0274,-0.0195,-0.0072
P1W,W,587703,0.8312,0.0351,0.0000,0.0000,0.9253,-0.7532,-9.6849,0.0551,-0.0222,-0.0143,0.0032
P1W,W,587723,0.8293,0.0347,0.0000,0.0000,0.9062,-0.6461,-9.8543,0.1138,-0.0001,0.0037,0.0115
P1W,W,587743,0.8289,0.0364,0.0000,0.0000,0.8995,-0.6586,-9.7142,0.1760,0.0003,-0.0209,0.0084
P1W,W,587763,0.8293,0.0394,0.0000,0.0000,0.9034,-0.6059,-9.7465,0.1461,0.0169,-0.0477,0.0185
P1W,W,587783,0.8323,0.0394,0.0000,0.0000,0.8914,-0.7736,-9.6717,0.0287,0.0517,-0.0608,0.0020
P1W,W,587803,0.8293,0.0442,0.0000,0.0000,0.9005,-0.7898,-9.8597,0.0431,0.0917,-0.0244,0.0221
P1W,W,587823,0.8316,0.0446,0.0000,0.0000,0.8340,-0.7197,-9.8807,-0.0814,0.0212,-0.0304,0.0171
P1W,W,587843,0.8316,0.0451,0.0000,0.0000,0.9086,-0.6772,-9.9064,-0.1557,-0.0312,-0.0258,0.0222
P1W,W,587863,0.8316,0.0416,0.0000,0.0000,0.9287,-0.6856,-9.7585,0.0042,-0.0702,-0.0308,0.0350
P1W,W,587883,0.8331,0.0407,0.0000,0.0000,0.9344,-0.6323,-9.5328,0.0054,-0.0240,-0.0336,0.0153
P1W,W,587903,0.8335,0.0368,0.0000,0.0000,0.9263,-0.5173,-9.8256,0.0449,0.0196,-0.0886,-0.0012
P1W,W,587923,0.8354,0.0498,0.0000,0.0000,0.9741,-0.8610,-9.9872,-0.0251,-0.0453,-0.0923,-0.0073
P1W,W,587943,0.8373,0.0489,0.0000,0.0000,0.8541,-0.6209,-9.6902,0.0629,-0.0961,-0.0137,0.0057
P1W,W,587963,0.8380,0.0342,0.0000,0.0000,0.9339,-0.4568,-9.5633,0.1078,-0.0584,-0.0254,-0.0009
P1W,W,587983,0.8407,0.0329,0.0000,0.0000,0.8474,-0.4850,-9.6908,0.1287,0.0417,-0.0414,-0.0129
P1W,W,588003,0.8411,0.0321,0.0000,0.0000,0.9483,-0.5347,-9.9525,0.1281,0.0649,-0.0497,-0.0164
P1W,W,588023,0.8403,0.0351,0.0000,0.0000,0.9249,-0.5550,-9.9429,0.0335,-0.0426,-0.0461,-0.0020
P1W,W,588043,0.8411,0.0260,0.0000,0.0000,0.9091,-0.6502,-9.6867,-0.0263,-0.1043,-0.0476,-0.0208
P1W,W,588063,0.8399,0.0312,0.0000,0.0000,0.9406,-0.7580,-9.4406,0.0629,-0.0099,0.0033,-0.0192
P1W,W,588083,0.8407,0.0321,0.0000,0.0000,0.9507,-0.4503,-9.8549,0.1718,0.0830,0.0380,-0.0049
