person_id,label,timestamp,flex1,flex2,flex3,flex4,flex5,ax,ay,az,gx,gy,gz
P1X,X,683123,0.9923,0.9892,0.9996,0.9942,1.0000,-1.8537,-9.5070,-1.6843,0.0309,-0.0586,0.0043
P1X,X,683143,0.9923,0.9918,0.9965,0.9763,0.9995,-1.9448,-9.5070,-1.7873,0.0284,-0.0605,-0.0020
P1X,X,683163,0.9927,0.9866,0.9942,1.0000,1.0000,-1.9220,-9.5669,-1.9184,0.0233,-0.0203,0.0088
P1X,X,683183,0.9927,0.9947,0.9933,0.9968,1.0000,-1.7765,-9.4789,-1.9226,-0.0016,-0.0132,0.0145
P1X,X,683203,0.9938,0.9870,1.0000,0.9886,1.0000,-1.8082,-9.5465,-1.9034,-0.0099,-0.0496,0.0036
P1X,X,683223,0.9907,0.9892,0.9832,0.9778,1.0000,-1.8502,-9.5082,-1.9226,-0.0250,-0.0573,0.0048
P1X,X,683243,0.9938,0.9841,1.0000,1.0000,1.0000,-1.8406,-9.4154,-1.8196,-0.0200,-0.0444,0.0047
P1X,X,683263,0.9950,0.9892,0.9765,0.9797,0.9530,-1.7615,-9.4478,-1.7166,0.0093,-0.0392,0.0032
P1X,X,683283,0.9927,0.9853,0.9849,1.0000,1.0000,-1.7825,-9.5933,-1.7645,0.0205,-0.0436,-0.0101
P1X,X,683303,0.9907,0.9896,0.9898,1.0000,0.9681,-1.7741,-9.5310,-1.7172,0.0164,-0.0288,-0.0145
P1X,X,683323,0.9931,0.9913,0.9973,0.9950,1.0000,-1.7963,-9.5777,-1.7178,0.0088,-0.0277,-0.0168
P1X,X,683343,0.9915,0.9866,0.9951,1.0000,1.0000,-1.8214,-9.4573,-1.7088,-0.0020,-0.0310,-0.0192
P1X,X,683363,0.9931,0.9883,0.9902,0.9979,0.9416,-1.8100,-9.4382,-1.6741,0.0506,-0.0273,-0.0304
P1X,X,683383,0.9919,0.9875,0.9916,0.9886,1.0000,-1.7232,-9.5148,-1.7262,0.0749,-0.0470,-0.0481
P1X,X,683403,0.9907,0.9862,0.9916,0.9883,0.9964,-1.9454,-9.6435,-1.8430,0.0605,-0.0390,-0.0549
P1X,X,683423,0.9923,0.9943,0.9894,0.9801,1.0000,-2.0304,-9.5657,-1.8525,0.0313,0.0215,-0.0322
P1X,X,683443,0.9919,0.9870,0.9814,0.9819,0.9725,-1.9759,-9.4873,-1.7502,0.0184,0.0466,-0.0107
P1X,X,683463,0.9946,0.9875,0.9894,0.9957,0.9305,-1.8537,-9.4933,-1.7945,0.0261,0.0008,-0.0103
P1X,X,683483,0.9876,0.9892,0.9809,0.9868,0.9676,-2.0501,-9.4861,-1.8196,0.0298,-0.0637,-0.0172
P1X,X,683503,0.9911,0.9870,0.9951,0.9842,0.9623,-2.1046,-9.5070,-1.8508,0.0293,-0.0313,0.0035
P1X,X,683523,0.9911,0.9875,1.0000,0.9972,1.0000,-1.8813,-9.5292,-1.8627,0.0157,-0.0302,0.0137
P1X,X,683543,0.9888,0.9862,0.9991,0.9968,0.9349,-1.8915,-9.4861,-1.8531,-0.0081,-0.0553,0.0080
P1X,X,683563,0.9927,0.9862,0.9747,1.0000,0.9141,-1.8519,-9.4627,-1.7945,-0.0111,-0.0353,0.0027
P1X,X,683583,0.9907,0.9858,1.0000,0.9924,1.0000,-1.7807,-9.4645,-1.7460,0.0012,-0.0484,-0.0061
P1X,X,683603,0.9795,0.9922,0.9916,1.0000,0.9703,-1.8436,-9.5783,-1.7142,0.0240,-0.0670,-0.0120
P1X,X,683623,0.9927,0.9870,0.9929,1.0000,1.0000,-1.8681,-9.6160,-1.7364,0.0153,-0.0569,-0.0067
P1X,X,683643,0.9911,0.9892,0.9916,0.9979,0.9535,-1.8699,-9.5076,-1.7819,0.0184,-0.0342,0.0017
P1X,X,683663,0.9904,0.9883,0.9933,0.9760,0.9389,-1.8160,-9.4094,-1.8567,0.0218,-0.0152,-0.0021
P1X,X,683683,0.9927,0.9862,0.9960,0.9823,0.9389,-1.7394,-9.4951,-1.9184,0.0426,-0.0036,-0.0133
P1X,X,683703,0.9907,0.9888,1.0000,1.0000,1.0000,-1.6394,-9.4729,-1.9190,0.0197,-0.0200,-0.0321
P1X,X,683723,0.9896,0.9866,0.9690,0.9853,1.0000,-1.9298,-9.4723,-1.8987,0.0193,-0.0348,-0.0493
P1X,X,683743,0.9892,0.9875,0.9951,0.9745,0.9513,-1.9837,-9.4992,-1.8753,0.0097,0.0092,-0.0389
P1X,X,683763,0.9888,0.9793,0.9876,0.9849,0.9362,-1.8957,-9.4819,-1.7717,0.0080,-0.0033,-0.0445
P1X,X,683783,0.9876,0.9866,0.9898,0.9991,1.0000,-2.1022,-9.5130,-1.8094,0.0184,-0.0293,-0.0452
P1X,X,683803,0.9888,0.9845,1.0000,0.9786,0.9592,-2.0765,-9.5627,-1.7927,0.0069,-0.0204,-0.0131
P1X,X,683823,0.9900,0.9870,0.9933,1.0000,0.9539,-1.9986,-9.5352,-1.7771,-0.0096,-0.0128,0.0025
P1X,X,716143,0.9191,0.8142,0.9246,0.8847,0.7399,0.1880,-9.6531,-1.3568,-0.0020,-0.0297,0.0075
P1X,X,716183,0.9179,0.8082,0.9206,0.8694,0.7328,0.1120,-9.7591,-1.3610,0.0141,-0.0156,0.0073
P1X,X,716203,0.9152,0.8129,0.9446,0.8780,0.8155,0.0623,-9.7663,-1.3532,-0.0111,-0.0056,0.0136
P1X,X,716223,0.9179,0.8138,0.9206,0.8824,0.7248,0.0856,-9.8154,-1.2993,-0.0390,-0.0092,0.0117
P1X,X,716243,0.9210,0.8129,0.9096,0.8858,0.7434,0.0802,-9.7340,-1.2065,-0.0486,-0.0316,0.0121
P1X,X,716263,0.9160,0.8120,0.9206,0.8944,0.8230,0.1072,-9.7220,-1.1376,0.0015,-0.0589,0.0041
P1X,X,716283,0.9183,0.8120,0.9237,0.8832,0.7523,-0.0245,-9.8256,-1.1742,0.0326,-0.0858,-0.0007
P1X,X,716303,0.9198,0.8142,0.9211,0.8906,0.7846,0.0431,-9.9106,-1.1891,0.0264,-0.0468,0.0060
P1X,X,716323,0.9191,0.8133,0.9224,0.8925,0.8111,0.1317,-9.8465,-1.2257,0.0152,-0.0521,0.0169
P1X,X,716343,0.9210,0.8133,0.9233,0.8862,0.7213,0.1569,-9.7693,-1.2622,0.0147,-0.0593,0.0184
P1X,X,716363,0.9171,0.8091,0.9260,0.8921,0.8367,0.1778,-9.7651,-1.2801,0.0230,-0.0513,0.0137
P1X,X,716383,0.9229,0.8215,0.9175,0.8981,0.8341,0.1683,-9.7735,-1.3250,0.0169,-0.0218,0.0116
P1X,X,716403,0.9171,0.8103,0.9242,0.8772,0.7881,0.1934,-9.7825,-1.3562,0.0012,-0.0117,0.0180
P1X,X,716423,0.9152,0.8091,0.9189,0.9111,0.7284,0.3868,-9.7100,-1.3203,0.0005,-0.0244,0.0084
P1X,X,716443,0.9191,0.8112,0.9335,0.8936,0.7540,0.2215,-9.6891,-1.3346,0.0220,-0.0614,-0.0068
P1X,X,716463,0.9191,0.8142,0.9100,0.8888,0.7903,0.1497,-9.7453,-1.3592,0.0220,-0.0402,-0.0160
P1X,X,716483,0.9167,0.8120,0.9331,0.8798,0.7275,0.2185,-9.7681,-1.2765,-0.0067,-0.0179,-0.0201
P1X,X,716503,0.9156,0.8116,0.9206,0.8917,0.8283,0.1988,-9.7148,-1.2304,-0.0119,-0.0525,-0.0289
P1X,X,716523,0.9206,0.8133,0.9193,0.8642,0.8266,-0.0162,-9.7519,-1.2783,0.0007,-0.0441,-0.0353
P1X,X,716543,0.9171,0.8129,0.9193,0.8690,0.7549,-0.0054,-9.7507,-1.2406,0.0057,-0.0055,-0.0270
P1X,X,716563,0.9206,0.8146,0.9339,0.8992,0.8204,0.0778,-9.8106,-1.2286,0.0246,-0.0400,-0.0191
P1X,X,716583,0.9183,0.8125,0.9308,0.8541,0.7297,-0.0036,-9.8286,-1.2436,-0.0007,-0.0814,-0.0087
P1X,X,716603,0.9198,0.8116,0.9189,0.8716,0.7496,-0.0186,-9.6657,-1.2041,-0.0136,-0.0460,0.0009
P1X,X,716623,0.9183,0.8142,0.9344,0.9033,0.8283,0.1449,-9.6657,-1.2125,0.0241,-0.0649,0.0089
P1X,X,716643,0.9198,0.8108,0.9153,0.8940,0.7961,0.0341,-9.6783,-1.3119,0.0172,-0.0613,0.0151
P1X,X,716663,0.9156,0.8120,0.9335,0.8750,0.7881,0.2096,-9.6352,-1.2831,-0.0276,-0.0406,0.0135
P1X,X,716683,0.9198,0.8129,0.9149,0.8765,0.7589,0.1449,-9.6040,-1.2819,-0.0264,-0.0625,0.0044
P1X,X,716703,0.9187,0.8052,0.9206,0.8839,0.7868,0.0754,-9.5843,-1.2388,-0.0105,-0.0196,-0.0003
P1X,X,716723,0.9183,0.8129,0.9224,0.8813,0.7142,0.2347,-9.6268,-1.2843,0.0191,-0.0121,-0.0036
P1X,X,716743,0.9187,0.8112,0.9198,0.8955,0.7655,0.1724,-9.8495,-1.3005,0.0232,-0.0621,-0.0025
P1X,X,716763,0.9214,0.8099,0.9118,0.9003,0.8115,0.0341,-9.7633,-1.3065,-0.0329,-0.0388,-0.0029
P1X,X,716783,0.9202,0.8129,0.9220,0.8917,0.7899,0.1515,-9.7525,-1.2610,-0.0265,-0.0246,-0.0035
P1X,X,716803,0.9183,0.8129,0.9149,0.8895,0.8093,0.1377,-9.8304,-1.2334,-0.0087,-0.0500,-0.0027
P1X,X,716823,0.9198,0.8108,0.8905,0.8832,0.7350,0.0581,-9.8675,-1.2125,0.0017,-0.0508,0.0003
P1X,X,716843,0.9237,0.8116,0.9162,0.8940,0.8451,0.0629,-9.8585,-1.1682,-0.0052,-0.0361,0.0068
P1X,X,716863,0.9195,0.8120,0.9135,0.8794,0.7589,0.0904,-9.7519,-1.1400,0.0075,-0.0418,0.0096
P1X,X,716883,0.9183,0.8103,0.9131,0.8862,0.8168,0.1102,-9.7807,-1.1658,0.0164,-0.0506,0.0115
P1X,X,716903,0.9191,0.8129,0.9002,0.8642,0.7284,0.1754,-9.7825,-1.2245,-0.0037,-0.0362,0.0179
P1X,X,716923,0.9206,0.8112,0.9100,0.8791,0.7279,0.2329,-9.7435,-1.1538,0.0003,-0.0486,0.0119
P1X,X,716943,0.9202,0.8133,0.9180,0.8794,0.7757,0.1341,-9.7525,-1.1670,0.0148,-0.0502,0.0064
P1X,X,716963,0.9183,0.8133,0.9144,0.8798,0.7868,0.2341,-9.7136,-1.1340,0.0254,-0.0293,0.0012
P1X,X,716983,0.9152,0.8091,0.9304,0.8739,0.7567,0.2545,-9.7364,-1.1634,0.0368,-0.0493,-0.0047
P1X,X,717003,0.9160,0.8142,0.9202,0.8794,0.7032,0.2275,-9.8190,-1.2047,0.0217,-0.0713,-0.0112
P1X,X,717023,0.9195,0.8142,0.9091,0.8843,0.7465,0.1527,-9.6891,-1.1712,0.0131,-0.0452,-0.0131
P1X,X,717043,0.9148,0.8185,0.9180,0.8873,0.8474,0.2305,-9.8453,-1.1772,0.0313,-0.0302,-0.0199
P1X,X,717063,0.9191,0.8138,0.9167,0.8862,0.8381,0.1904,-9.6950,-1.1634,0.0288,-0.0364,-0.0203
P1X,X,717083,0.9156,0.8142,0.9184,0.8940,0.8124,0.1844,-9.7016,-1.2137,0.0309,-0.0602,-0.0286
P1X,X,717103,0.9191,0.8125,0.9184,0.8623,0.7253,0.0275,-9.7106,-1.2736,0.0285,-0.0450,-0.0253
P1X,X,717123,0.9183,0.8112,0.9198,0.8876,0.8195,0.1138,-9.7154,-1.3352,0.0201,-0.0164,-0.0175
P1X,X,717143,0.9175,0.8142,0.9224,0.8791,0.7169,0.1533,-9.7759,-1.3526,0.0180,-0.0183,-0.0129
P1X,X,717163,0.9179,0.8189,0.9206,0.8753,0.7461,0.1203,-9.8579,-1.3400,0.0015,-0.0180,-0.0092
P1X,X,717183,0.9195,0.8129,0.9215,0.8835,0.8089,0.1090,-9.7483,-1.3005,-0.0141,-0.0300,-0.0041
P1X,X,717203,0.9183,0.8215,0.9206,0.8772,0.7837,0.1754,-9.8028,-1.2610,0.0141,-0.0461,-0.0043
P1X,X,717223,0.9148,0.8150,0.9016,0.8929,0.7461,0.0431,-9.7609,-1.2580,0.0124,-0.0609,-0.0008
P1X,X,717243,0.9222,0.8219,0.9135,0.8791,0.8053,0.0784,-9.7699,-1.2975,0.0200,-0.0316,0.0043
P1X,X,717263,0.9164,0.8116,0.9220,0.8835,0.7408,0.1820,-9.7717,-1.2544,-0.0045,-0.0288,0.0043
P1X,X,717283,0.9167,0.8142,0.9162,0.9067,0.8009,0.2084,-9.7334,-1.2095,-0.0016,-0.0341,0.0001
P1X,X,717303,0.9164,0.8180,0.9198,0.8705,0.7974,0.1844,-9.7405,-1.2215,0.0085,-0.0440,-0.0037
P1X,X,717323,0.9175,0.8120,0.9180,0.8746,0.7691,0.1569,-9.8387,-1.2442,0.0188,-0.0337,-0.0065
P1X,X,717343,0.9164,0.8163,0.9140,0.8843,0.8142,0.1539,-9.7417,-1.2316,0.0193,-0.0382,-0.0049
P1X,X,717363,0.9206,0.8129,0.9153,0.8955,0.7921,0.1036,-9.7687,-1.3472,0.0001,-0.0412,-0.0024
P1X,X,717383,0.9183,0.8052,0.9211,0.8787,0.7846,0.1503,-9.7843,-1.3071,0.0052,-0.0075,-0.0033
P1X,X,717403,0.9148,0.8125,0.9038,0.8850,0.7222,0.2173,-9.7304,-1.3436,-0.0044,-0.0490,-0.0092
P1X,X,717423,0.9183,0.8138,0.9331,0.8906,0.7810,0.0784,-9.7699,-1.3125,-0.0003,-0.0602,-0.0131
P1X,X,717443,0.9179,0.8133,0.9184,0.8999,0.8314,0.1287,-9.7022,-1.2412,-0.0053,-0.0332,-0.0164
P1X,X,717463,0.9202,0.8142,0.9127,0.8996,0.7894,0.1844,-9.7435,-1.1328,0.0096,-0.0396,-0.0172
P1X,X,717483,0.9179,0.8172,0.9131,0.8761,0.8058,0.0862,-9.7663,-1.1837,-0.0025,-0.0544,-0.0151
P1X,X,717503,0.9198,0.8146,0.8998,0.8824,0.8305,0.0635,-9.7441,-1.1400,0.0116,-0.0460,-0.0177
P1X,X,717523,0.9187,0.8168,0.9135,0.8813,0.7567,0.0102,-9.7747,-1.1454,0.0362,-0.0412,-0.0169
P1X,X,717543,0.9179,0.8129,0.9144,0.8992,0.7952,0.0096,-9.8387,-1.2298,0.0266,-0.0305,-0.0069
P1X,X,717563,0.9187,0.8155,0.9144,0.8880,0.7562,0.0778,-9.7166,-1.2071,-0.0059,-0.0220,0.0017
P1X,X,717583,0.9179,0.8146,0.9109,0.8899,0.8805,0.1593,-9.7070,-1.1628,0.0095,-0.0358,-0.0015
P1X,X,717603,0.9202,0.8146,0.9104,0.8731,0.8124,0.1964,-9.7411,-1.2334,0.0222,-0.0356,-0.0009
P1X,X,717623,0.9164,0.8133,0.8896,0.8903,0.8115,0.2527,-9.8316,-1.2574,0.0072,-0.0658,-0.0043
P1X,X,717643,0.9191,0.8138,0.9056,0.8597,0.7629,0.0419,-9.6615,-1.2328,0.0027,-0.0737,-0.0059
P1X,X,717663,0.9175,0.8159,0.9144,0.8791,0.8142,0.0719,-9.7711,-1.2771,0.0137,-0.0296,-0.0067
P1X,X,717683,0.9183,0.8138,0.9135,0.8675,0.7700,0.0778,-9.6555,-1.2694,0.0108,-0.0273,-0.0068
P1X,X,717703,0.9179,0.8168,0.9002,0.8720,0.8297,0.1778,-9.7753,-1.2801,0.0252,-0.0336,-0.0025
P1X,X,717723,0.9164,0.8112,0.8932,0.8809,0.7156,0.1539,-9.8022,-1.2724,-0.0040,-0.0272,-0.0019
P1X,X,717743,0.9175,0.8129,0.9127,0.8802,0.8014,0.1000,-9.6843,-1.2574,-0.0422,-0.0079,0.0007
P1X,X,717763,0.9175,0.8138,0.8949,0.8746,0.7394,0.2658,-9.6561,-1.1448,-0.0109,-0.0272,-0.0056
P1X,X,717783,0.9164,0.8146,0.9162,0.8947,0.8274,0.1886,-9.7759,-1.1652,0.0200,-0.0745,-0.0120
P1X,X,717803,0.9183,0.8133,0.9153,0.8798,0.7501,0.1006,-9.8393,-1.1550,0.0184,-0.0406,-0.0112
P1X,X,717823,0.9171,0.8133,0.9419,0.8880,0.7784,0.1329,-9.7962,-1.2161,-0.0167,-0.0278,-0.0065
P1X,X,717843,0.9152,0.8112,0.9109,0.8783,0.8146,0.1359,-9.7926,-1.2412,-0.0112,-0.0128,-0.0089
P1X,X,717863,0.9164,0.8120,0.9069,0.8713,0.8257,0.2138,-9.6627,-1.2376,-0.0021,-0.0147,-0.0209
P1X,X,717883,0.9191,0.8138,0.9193,0.8571,0.7363,0.1132,-9.8609,-1.2837,0.0304,-0.0520,-0.0217
P1X,X,717903,0.9195,0.8133,0.9162,0.8791,0.8425,0.0419,-9.9130,-1.3538,-0.0125,-0.0384,-0.0171
P1X,X,717923,0.9191,0.8133,0.8967,0.8806,0.7633,0.0455,-9.7118,-1.3322,-0.0309,-0.0292,-0.0164
P1X,X,717943,0.9198,0.8120,0.9131,0.8858,0.8111,0.1275,-9.6926,-1.2029,0.0095,-0.0261,-0.0141
P1X,X,717963,0.9187,0.8163,0.9144,0.8988,0.8398,0.0970,-9.8034,-1.1430,0.0244,-0.0653,-0.0163
P1X,X,717983,0.9156,0.8138,0.9167,0.8724,0.8009,0.0072,-9.7968,-1.1430,-0.0080,-0.0390,-0.0053
P1X,X,718003,0.9164,0.8133,0.9211,0.8787,0.7187,0.2455,-9.7405,-1.1436,-0.0224,-0.0144,-0.0039
P1X,X,718023,0.9210,0.8155,0.9171,0.8854,0.7885,0.0916,-9.7148,-1.1436,0.0104,-0.0384,-0.0123
P1X,X,718043,0.9175,0.8125,0.9100,0.8813,0.7191,0.0982,-9.7980,-1.1334,0.0193,-0.0218,-0.0076
P1X,X,718063,0.9164,0.8125,0.9153,0.8884,0.8168,0.1503,-9.7831,-1.1742,0.0205,-0.0337,-0.0060
P1X,X,718083,0.9160,0.8082,0.8998,0.8862,0.8190,0.0485,-9.8519,-1.1963,0.0226,-0.0328,-0.0035
P1X,X,718103,0.9167,0.8142,0.9251,0.8672,0.7111,0.0838,-9.7669,-1.2274,0.0053,-0.0095,-0.0041
P1X,X,718123,0.9164,0.8155,0.9144,0.8713,0.7930,0.1677,-9.7801,-1.2011,0.0159,-0.0328,-0.0065
P1X,X,718143,0.9164,0.8112,0.9109,0.8787,0.8168,0.0036,-9.6549,-1.2077,0.0201,-0.0416,-0.0089
P1X,X,718163,0.9206,0.8150,0.9255,0.9014,0.7885,0.2054,-9.8100,-1.1556,0.0272,-0.0148,-0.0071
P1X,X,718183,0.9206,0.8129,0.9096,0.8951,0.6979,0.1509,-9.8058,-1.1909,0.0045,-0.0380,-0.0189
P1X,X,718203,0.9167,0.8129,0.9135,0.9011,0.7607,0.0503,-9.7663,-1.2520,-0.0069,-0.0165,-0.0180
P1X,X,718223,0.9187,0.8129,0.8923,0.8888,0.7669,0.1174,-9.7100,-1.2340,-0.0080,0.0108,-0.0128
P1X,X,718243,0.9164,0.8112,0.9135,0.8955,0.7859,0.1048,-9.7118,-1.2286,0.0044,0.0084,-0.0104
P1X,X,718263,0.9179,0.8180,0.8971,0.8813,0.7461,0.1054,-9.7998,-1.2376,0.0155,-0.0116,-0.0149
P1X,X,718283,0.9191,0.8129,0.9100,0.9003,0.7571,0.0018,-9.7866,-1.2694,-0.0278,-0.0316,-0.0096
P1X,X,718303,0.9175,0.8133,0.9087,0.8802,0.7505,0.0180,-9.6621,-1.2167,-0.0437,-0.0149,-0.0039
P1X,X,718323,0.9160,0.8142,0.9144,0.8798,0.7244,0.0114,-9.6376,-1.1520,-0.0228,-0.0011,-0.0028
P1X,X,718343,0.9148,0.8125,0.9215,0.8869,0.8695,0.1132,-9.7118,-1.1023,0.0079,0.0015,-0.0033
P1X,X,718363,0.9121,0.8155,0.9091,0.8858,0.8363,0.1473,-9.7783,-1.1622,-0.0045,-0.0394,-0.0029
P1X,X,718383,0.9183,0.8125,0.9189,0.8780,0.7164,0.0072,-9.7938,-1.1760,0.0005,-0.0380,-0.0004
P1X,X,718403,0.9167,0.8163,0.9171,0.9111,0.7850,0.0515,-9.7771,-1.1382,0.0131,-0.0048,0.0048
P1X,X,718423,0.9148,0.8142,0.9127,0.8802,0.7350,0.0665,-9.7346,-1.1813,0.0085,-0.0179,-0.0001
P1X,X,718443,0.9152,0.8129,0.9140,0.8899,0.8124,0.1383,-9.8016,-1.2574,0.0173,-0.0416,-0.0056
P1X,X,718463,0.9148,0.8031,0.9113,0.8940,0.7532,-0.0335,-9.7609,-1.3191,-0.0051,-0.0762,0.0013
P1X,X,718483,0.9164,0.8138,0.9224,0.8888,0.7991,-0.0503,-9.7208,-1.3119,0.0049,-0.0402,0.0100
P1X,X,718503,0.9164,0.8142,0.8927,0.8925,0.8403,0.1808,-9.7998,-1.2993,0.0117,-0.0421,0.0149
P1X,X,718523,0.9179,0.8112,0.9167,0.8988,0.7602,0.0665,-9.7477,-1.3700,-0.0019,-0.0809,0.0160
P1X,X,718543,0.9179,0.8129,0.9056,0.8876,0.7536,-0.0162,-9.7920,-1.2532,-0.0067,-0.0572,0.0269
P1X,X,718563,0.9191,0.8108,0.9144,0.8914,0.7094,0.0090,-9.8459,-1.1544,-0.0217,-0.0113,0.0494
P1X,X,718583,0.9167,0.8125,0.8896,0.9007,0.7523,0.1683,-9.7172,-1.0185,-0.0140,0.0096,0.0629
P1X,X,718603,0.9183,0.8120,0.9131,0.8988,0.8142,0.2383,-9.7370,-0.9658,0.0228,-0.0513,0.0600
P1X,X,718623,0.9164,0.8133,0.9078,0.8985,0.7978,0.1090,-9.7573,-0.9149,0.0157,-0.0542,0.0554
P1X,X,718643,0.9183,0.8120,0.9193,0.9093,0.8270,0.1718,-9.6950,-0.8550,0.0208,-0.0230,0.0512
P1X,X,718663,0.9148,0.8078,0.9135,0.8903,0.7218,0.2593,-9.7807,-0.8526,0.0163,-0.0437,0.0466
P1X,X,718683,0.9167,0.8099,0.8949,0.9037,0.8204,0.1862,-9.7262,-0.8401,0.0133,-0.0536,0.0358
P1X,X,718703,0.9229,0.8142,0.9149,0.8981,0.7890,0.2473,-9.6429,-0.8772,0.0280,-0.0454,0.0208
P1X,X,718723,0.9160,0.8026,0.9233,0.8929,0.8491,0.2988,-9.7130,-0.9329,0.0701,-0.0514,0.0024
P1X,X,718743,0.9175,0.8091,0.9016,0.8958,0.8177,0.2401,-9.7735,-1.0778,0.0673,-0.0867,-0.0155
P1X,X,718763,0.9152,0.8125,0.9167,0.8813,0.7306,0.0964,-9.8711,-1.2215,0.0352,-0.0633,-0.0155
P1X,X,718783,0.9171,0.8125,0.9158,0.8970,0.8367,0.2503,-9.7286,-1.3388,-0.0089,-0.0209,-0.0136
P1X,X,718803,0.9167,0.8138,0.9189,0.8947,0.6952,0.2066,-9.6537,-1.3771,-0.0165,-0.0360,-0.0180
P1X,X,718823,0.9183,0.8125,0.9260,0.8973,0.7677,0.2994,-9.6879,-1.3753,0.0075,-0.0501,-0.0101
P1X,X,718843,0.9183,0.8125,0.9140,0.8917,0.7545,0.2641,-9.7962,-1.4173,0.0175,-0.0642,-0.0057
P1X,X,718863,0.9152,0.8142,0.9291,0.8899,0.7925,0.3347,-9.6831,-1.4358,0.0005,-0.0269,0.0015
P1X,X,718883,0.9152,0.8133,0.9175,0.8828,0.7593,0.3371,-9.5621,-1.2706,0.0139,-0.0192,-0.0075
P1X,X,718903,0.9152,0.7992,0.9162,0.8966,0.8239,0.2114,-9.5939,-1.1975,0.0396,0.0033,-0.0165
P1X,X,718923,0.9140,0.8043,0.9175,0.8862,0.7182,0.0263,-9.6423,-1.2035,0.0500,0.0119,-0.0213
P1X,X,718943,0.9179,0.8112,0.9189,0.8947,0.7916,-0.1395,-9.8585,-1.2119,0.0544,0.0181,-0.0049
P1X,X,718963,0.9152,0.8125,0.9096,0.8884,0.7890,-0.0946,-9.8345,-1.2167,0.0232,0.0109,0.0199
P1X,X,718983,0.9156,0.8103,0.9149,0.8858,0.7930,-0.0413,-9.8836,-1.2718,-0.0200,-0.0426,0.0237
P1X,X,719003,0.9179,0.8112,0.9127,0.8862,0.7487,-0.0784,-9.9010,-1.1376,-0.0245,-0.0759,0.0191
P1X,X,719023,0.9140,0.8223,0.9127,0.8876,0.8345,-0.0455,-9.8603,-0.9580,-0.0285,-0.0970,0.0187
P1X,X,719043,0.9160,0.8138,0.9268,0.8806,0.7894,0.0072,-9.7729,-0.9125,-0.0217,-0.1355,0.0163
P1X,X,719063,0.9206,0.8146,0.9078,0.8944,0.7956,0.0126,-9.8789,-0.8838,-0.0240,-0.1653,0.0152
P1X,X,719083,0.9171,0.8120,0.9153,0.8944,0.7991,0.0844,-9.6412,-0.8508,-0.0426,-0.1422,0.0060
P1X,X,719103,0.9160,0.8133,0.9162,0.8917,0.8018,0.2251,-9.6328,-0.9927,-0.0396,-0.1645,-0.0016
P1X,X,719123,0.9179,0.8129,0.9175,0.9003,0.8350,0.1239,-9.7082,-1.0119,-0.0128,-0.1883,-0.0119
P1X,X,719143,0.9214,0.8133,0.9082,0.8944,0.7443,-0.0180,-9.6495,-0.9927,-0.0017,-0.1859,-0.0189
P1X,X,719163,0.9152,0.8112,0.9158,0.8891,0.8690,0.0000,-9.7328,-1.1125,-0.0011,-0.1624,-0.0124
P1X,X,719183,0.9198,0.8120,0.9171,0.8970,0.8053,-0.0545,-9.5992,-1.1927,-0.0272,-0.1500,0.0023
P1X,X,719203,0.9160,0.8108,0.9167,0.8731,0.7501,0.0952,-9.6256,-1.2137,-0.0233,-0.1488,0.0089
P1X,X,719223,0.9175,0.8129,0.9100,0.8850,0.7567,-0.0162,-9.6364,-1.1544,0.0001,-0.1628,0.0160
P1X,X,719243,0.9148,0.8155,0.9118,0.8858,0.7293,-0.0545,-9.6400,-1.1873,0.0012,-0.1763,0.0310
P1X,X,719263,0.9152,0.8138,0.9042,0.8854,0.7562,-0.0982,-9.5735,-1.2203,-0.0016,-0.1242,0.0521
P1X,X,719283,0.9187,0.8108,0.9104,0.8839,0.7983,0.2557,-9.6543,-1.2759,-0.0017,-0.1226,0.0650
P1X,X,719303,0.9144,0.8142,0.9091,0.8649,0.7381,0.0467,-9.5968,-1.4149,-0.0233,-0.1548,0.0767
P1X,X,719323,0.9144,0.8116,0.9308,0.9029,0.8341,0.4622,-9.7022,-1.4442,-0.0155,-0.1231,0.0954
P1X,X,719343,0.9195,0.8129,0.9109,0.9018,0.8151,0.4221,-9.8022,-1.5089,-0.0496,-0.1744,0.1013
P1X,X,719363,0.9187,0.8120,0.9131,0.8832,0.7178,0.5077,-9.7950,-1.4035,-0.0746,-0.0999,0.1170
P1X,X,719383,0.9167,0.8133,0.9229,0.8854,0.7576,0.8011,-9.8405,-1.2789,-0.1010,-0.0938,0.1178
P1X,X,719403,0.9191,0.8146,0.9073,0.8783,0.7505,0.7610,-9.7567,-1.0634,-0.0958,-0.0761,0.1067
P1X,X,719423,0.9156,0.8095,0.9104,0.9055,0.7456,0.8191,-9.7675,-0.9143,-0.0646,-0.0292,0.0953
P1X,X,719443,0.9187,0.8133,0.9069,0.8821,0.7509,0.8921,-9.8250,-0.7520,-0.0290,-0.0171,0.0877
P1X,X,719463,0.9152,0.8146,0.9109,0.8873,0.7248,0.7712,-9.7094,-0.7335,-0.0330,-0.0201,0.0757
P1X,X,719483,0.9164,0.8091,0.9268,0.8858,0.7642,0.8754,-9.9262,-0.6868,0.0072,0.0192,0.0634
P1X,X,719503,0.9175,0.8172,0.9082,0.8910,0.7394,0.7484,-9.7878,-0.7520,0.0052,0.0245,0.0453
P1X,X,719523,0.9156,0.8150,0.8932,0.8888,0.7164,0.8526,-9.9357,-0.8377,0.0345,0.0163,0.0309
P1X,X,719543,0.9164,0.8138,0.9091,0.8910,0.7938,0.7041,-9.9531,-0.8915,0.0420,0.0059,0.0049
P1X,X,719563,0.9167,0.8129,0.9118,0.8765,0.8381,0.6820,-10.0040,-0.9400,0.0221,-0.0072,-0.0044
P1X,X,719583,0.9214,0.8120,0.9326,0.9014,0.8213,0.6419,-10.0986,-0.9712,0.0358,-0.0265,-0.0173
P1X,X,719603,0.9175,0.8125,0.9171,0.8850,0.7540,0.5646,-10.0555,-0.9772,0.0369,-0.0225,-0.0288
P1X,X,719623,0.9144,0.8108,0.9091,0.8973,0.8257,0.5952,-9.9369,-1.0352,0.0276,-0.0203,-0.0397
P1X,X,719643,0.9175,0.8116,0.9091,0.8839,0.7240,0.5658,-9.9112,-1.0335,0.0478,-0.0537,-0.0454
P1X,X,719663,0.9129,0.8125,0.9069,0.8921,0.8111,0.4916,-9.9459,-1.0843,0.0568,-0.0616,-0.0472
P1X,X,719683,0.9156,0.8125,0.9122,0.8813,0.7319,0.5784,-9.8411,-1.0574,0.0456,-0.0655,-0.0462
P1X,X,719703,0.9175,0.8091,0.9087,0.9011,0.7474,0.5544,-9.6394,-1.0460,0.0830,-0.0775,-0.0486
P1X,X,719723,0.9133,0.8116,0.9135,0.8955,0.7394,0.5940,-9.7220,-1.1077,0.1174,-0.0837,-0.0522
P1X,X,719743,0.9183,0.8091,0.8976,0.8929,0.8115,0.4928,-9.6765,-1.1879,0.1156,-0.0939,-0.0530
P1X,X,719763,0.9160,0.8120,0.9282,0.8977,0.8190,0.4856,-9.7489,-1.2280,0.0818,-0.0705,-0.0506
P1X,X,719783,0.9121,0.8112,0.9113,0.8847,0.8062,0.5077,-9.6459,-1.2358,0.0609,-0.0374,-0.0464
P1X,X,719803,0.9140,0.8146,0.9011,0.8973,0.7828,0.4910,-9.6531,-1.3274,0.0604,-0.0305,-0.0561
P1X,X,719823,0.9121,0.8099,0.9184,0.8958,0.7987,0.4407,-9.6711,-1.3538,0.0489,-0.0120,-0.0602
P1X,X,719843,0.9152,0.8073,0.9180,0.8828,0.7602,0.4173,-9.7202,-1.3819,0.0288,-0.0021,-0.0522
P1X,X,719863,0.9160,0.8129,0.9082,0.8761,0.7288,0.4018,-9.7447,-1.3250,0.0207,0.0015,-0.0485
P1X,X,719883,0.9121,0.8125,0.9047,0.8817,0.7226,0.2994,-9.7890,-1.3238,-0.0057,-0.0023,-0.0409
P1X,X,719903,0.9140,0.8133,0.8949,0.8914,0.7899,0.2910,-9.8268,-1.3316,-0.0155,0.0289,-0.0332
P1X,X,719923,0.9167,0.8035,0.8971,0.8862,0.7408,0.3293,-9.6908,-1.2155,-0.0524,0.0246,-0.0203
P1X,X,719943,0.9164,0.8112,0.9109,0.9022,0.8359,0.2922,-9.7974,-1.1394,-0.0346,-0.0005,-0.0195
P1X,X,719963,0.9156,0.8103,0.9100,0.8962,0.8310,0.1904,-9.7567,-1.0670,-0.0422,0.0036,-0.0168
P1X,X,719983,0.9160,0.8150,0.9268,0.8709,0.7580,0.3605,-9.8322,-1.0101,-0.0300,-0.0099,-0.0145
P1X,X,720003,0.9156,0.8069,0.8905,0.8996,0.7947,0.1808,-9.6998,-1.0059,-0.0205,-0.0280,-0.0133
P1X,X,720023,0.9148,0.8116,0.9042,0.8936,0.8686,0.4113,-9.8795,-1.0011,0.0031,-0.0179,-0.0143
P1X,X,720043,0.9179,0.8146,0.9073,0.8843,0.7828,0.3078,-9.7334,-1.0071,0.0011,-0.0289,-0.0193
P1X,X,720063,0.9144,0.8116,0.9065,0.9022,0.7341,0.3622,-9.8429,-1.0562,-0.0145,-0.0027,-0.0188
P1X,X,720083,0.9136,0.8129,0.9051,0.9171,0.7801,0.4269,-9.7124,-1.0490,-0.0199,0.0148,-0.0184
P1X,X,720103,0.9144,0.8108,0.9038,0.8977,0.7585,0.5131,-9.7555,-1.0047,0.0075,0.0161,-0.0325
P1X,X,720123,0.9136,0.8112,0.9078,0.9007,0.8244,0.4365,-9.7860,-0.9861,-0.0033,-0.0208,-0.0480
P1X,X,720143,0.9167,0.8108,0.9100,0.8765,0.8252,0.1982,-9.7310,-0.9634,0.0025,-0.0109,-0.0512
P1X,X,720163,0.9179,0.8129,0.9087,0.8936,0.8049,0.2269,-9.8106,-0.9035,0.0136,0.0139,-0.0525
P1X,X,720183,0.9152,0.8061,0.9122,0.8914,0.7912,0.1934,-9.7699,-0.9269,0.0181,-0.0088,-0.0504
P1X,X,720203,0.9156,0.8125,0.9175,0.8847,0.8160,0.1239,-9.7699,-0.8874,0.0384,-0.0465,-0.0520
P1X,X,720223,0.9148,0.8099,0.9016,0.8809,0.7593,0.0317,-9.8106,-1.0041,0.0364,-0.0350,-0.0401
P1X,X,720243,0.9164,0.8176,0.9069,0.8865,0.7943,0.0144,-9.6699,-1.0574,0.0177,-0.0168,-0.0234
P1X,X,720263,0.9156,0.8103,0.9087,0.8802,0.8075,0.1784,-9.7088,-1.1131,0.0346,-0.0131,-0.0160
P1X,X,720283,0.9183,0.8133,0.9104,0.8783,0.8000,0.1700,-9.6801,-1.1376,0.0265,-0.0421,-0.0143
P1X,X,720303,0.9160,0.8043,0.9104,0.8783,0.7925,0.1341,-9.7124,-1.1712,0.0136,-0.0497,-0.0029
P1X,X,720323,0.9171,0.8116,0.9016,0.8895,0.8164,0.1407,-9.7238,-1.1592,-0.0179,-0.0325,0.0049
P1X,X,720343,0.9167,0.8065,0.9034,0.8780,0.7859,0.2353,-9.6477,-1.1071,-0.0064,-0.0092,0.0032
P1X,X,720363,0.9140,0.8112,0.9038,0.8876,0.8297,0.2964,-9.7244,-1.0646,0.0113,-0.0409,-0.0052
P1X,X,720383,0.9183,0.8155,0.9060,0.8806,0.7408,0.1144,-9.7627,-1.0694,-0.0020,-0.0650,-0.0019
P1X,X,720403,0.9144,0.8099,0.8799,0.8884,0.7447,0.1227,-9.7286,-1.1460,-0.0160,-0.0374,0.0135
P1X,X,720423,0.9160,0.8133,0.9122,0.8903,0.7461,0.2928,-9.7435,-1.0586,-0.0013,-0.0266,0.0195
P1X,X,720443,0.9156,0.8150,0.9091,0.8847,0.7624,0.2611,-9.7238,-1.0766,0.0108,-0.0514,0.0172
P1X,X,720463,0.9156,0.8095,0.9078,0.8739,0.7191,0.2796,-9.7531,-1.1059,0.0049,-0.0310,0.0145
P1X,X,720483,0.9167,0.8103,0.9082,0.8817,0.7624,0.3371,-9.8459,-1.1915,-0.0001,-0.0348,0.0193
P1X,X,720503,0.9160,0.8065,0.9078,0.8798,0.7262,0.2970,-9.7573,-1.1718,-0.0197,-0.0380,0.0187
P1X,X,720523,0.9144,0.8129,0.9189,0.8821,0.7253,0.4455,-9.7825,-1.1155,-0.0039,-0.0357,0.0120
P1X,X,720543,0.9156,0.8108,0.9100,0.8716,0.7350,0.2928,-9.7477,-1.1107,-0.0035,-0.0669,0.0044
P1X,X,720563,0.9148,0.8138,0.9025,0.8988,0.8252,0.3155,-9.8118,-1.0843,-0.0036,-0.0296,0.0069
P1X,X,720583,0.9144,0.8116,0.9034,0.8806,0.8332,0.4125,-9.7974,-1.0281,-0.0127,-0.0354,0.0023
P1X,X,720603,0.9152,0.8120,0.9082,0.8794,0.7576,0.3197,-9.7573,-1.0305,-0.0180,-0.0429,0.0021
P1X,X,720623,0.9156,0.8116,0.9149,0.9104,0.7585,0.3419,-9.7663,-1.0065,-0.0053,-0.0337,-0.0020
P1X,X,720643,0.9160,0.8043,0.9056,0.8720,0.7372,0.2652,-9.7238,-1.0017,-0.0004,-0.0175,-0.0016
P1X,X,720663,0.9156,0.8129,0.9109,0.8917,0.8164,0.3599,-9.7771,-1.0095,0.0040,-0.0188,0.0007
P1X,X,720683,0.9152,0.8112,0.9091,0.8761,0.7514,0.2533,-9.7890,-1.0346,0.0208,-0.0308,-0.0011
P1X,X,720703,0.9148,0.8142,0.9113,0.8970,0.7978,0.2467,-9.7896,-1.0568,0.0071,-0.0245,0.0056
P1X,X,720723,0.9140,0.8138,0.9051,0.8925,0.7974,0.2658,-9.8004,-1.0323,0.0059,-0.0204,0.0107
P1X,X,720743,0.9148,0.8099,0.8909,0.8929,0.8062,0.3126,-9.8238,-1.0239,0.0048,-0.0173,0.0129
P1X,X,720763,0.9156,0.8112,0.8958,0.8906,0.7310,0.3742,-9.7944,-1.0394,0.0180,-0.0349,0.0153
P1X,X,720783,0.9144,0.8035,0.8998,0.8873,0.8106,0.3533,-9.7896,-1.0059,0.0061,-0.0416,0.0072
P1X,X,720803,0.9136,0.8052,0.9060,0.8780,0.7571,0.3826,-9.6789,-1.0071,-0.0107,-0.0175,0.0041
P1X,X,720823,0.9133,0.8116,0.9060,0.8843,0.8323,0.4646,-9.7148,-1.0329,0.0165,-0.0061,-0.0035
P1X,X,720843,0.9144,0.8108,0.9042,0.8768,0.8429,0.4712,-9.7387,-1.0700,0.0313,-0.0306,-0.0113
P1X,X,720863,0.9167,0.8039,0.9020,0.8821,0.8283,0.3575,-9.7849,-1.0460,0.0329,-0.0269,-0.0250
P1X,X,720883,0.9105,0.8129,0.9042,0.8768,0.7483,0.3473,-9.7364,-1.0388,0.0326,-0.0121,-0.0304
P1X,X,720903,0.9136,0.8112,0.9224,0.8988,0.7947,0.3820,-9.7747,-1.1263,0.0268,-0.0369,-0.0325
P1X,X,720923,0.9179,0.8061,0.9171,0.8958,0.8376,0.2892,-9.7124,-1.1951,0.0004,-0.0642,-0.0349
