person_id,label,timestamp,flex1,flex2,flex3,flex4,flex5,ax,ay,az,gx,gy,gz
P1Z,Z,87243,0.9928,0.9910,1.0000,1.0000,0.9567,-1.0556,-9.6926,-1.0820,0.0184,-0.0334,0.0060
P1Z,Z,87263,0.9895,0.9851,0.9922,0.9821,1.0000,-1.1400,-9.6418,-1.1215,0.0013,-0.0369,0.0028
P1Z,Z,87283,0.9921,0.9876,1.0000,0.9919,1.0000,-0.9718,-9.7154,-1.1640,-0.0120,-0.0292,0.0191
P1Z,Z,87303,0.9899,0.9885,1.0000,0.9802,0.9999,-1.0077,-9.6429,-1.1472,-0.0273,-0.0413,0.0077
P1Z,Z,87323,0.9925,0.9885,0.9521,0.9798,0.9891,-1.0149,-9.7232,-1.1095,-0.0234,-0.0400,-0.0007
P1Z,Z,87343,0.9917,0.9885,0.9846,1.0000,0.9694,-1.0724,-9.7256,-1.0778,-0.0292,-0.0232,-0.0005
P1Z,Z,87363,0.9872,0.9881,0.9635,0.9926,0.9783,-0.9873,-9.7376,-1.0299,-0.0268,-0.0156,0.0036
P1Z,Z,87383,0.9943,0.9885,1.0000,0.9667,0.9952,-1.0131,-9.7364,-0.9652,-0.0232,-0.0322,0.0020
P1Z,Z,87403,0.9880,0.9864,0.9922,0.9813,0.9811,-1.0616,-9.8118,-0.9778,0.0105,-0.0412,0.0029
P1Z,Z,87423,0.9887,0.9872,1.0000,0.9960,0.9356,-0.9826,-9.8627,-0.9993,0.0132,-0.0309,0.0075
P1Z,Z,87443,0.9891,0.9881,0.9913,0.9904,0.9750,-1.1035,-9.7579,-1.0155,0.0184,-0.0365,0.0032
P1Z,Z,87463,0.9876,0.9972,1.0000,0.9889,0.9238,-0.8981,-9.7615,-1.0550,0.0338,-0.0131,-0.0032
P1Z,Z,87483,0.9876,0.9876,0.9942,0.9975,0.9450,-0.9844,-9.7088,-1.0855,0.0191,-0.0292,-0.0184
P1Z,Z,87503,0.9872,0.9864,0.9913,0.9990,0.9163,-1.0424,-9.7352,-1.0634,0.0085,-0.0244,-0.0159
P1Z,Z,87523,0.9895,0.9901,1.0000,0.9780,0.9384,-1.0329,-9.6178,-0.9993,0.0004,-0.0104,-0.0101
P1Z,Z,87543,0.9891,0.9885,1.0000,0.9911,0.9252,-1.0867,-9.7286,-1.0149,0.0107,-0.0318,-0.0089
P1Z,Z,87563,0.9876,0.9989,0.9774,0.9945,1.0000,-1.0951,-9.6400,-0.9305,0.0031,-0.0378,-0.0124
P1Z,Z,87583,0.9891,0.9926,0.9875,1.0000,0.9271,-1.1472,-9.6932,-0.9281,0.0099,-0.0425,-0.0049
P1Z,Z,87603,0.9925,0.9872,1.0000,0.9941,0.9224,-1.0305,-9.7567,-0.9963,0.0084,-0.0336,0.0087
P1Z,Z,87623,0.9921,0.9876,0.9731,0.9904,1.0000,-0.9478,-9.7190,-0.9502,0.0041,-0.0494,0.0005
P1Z,Z,87643,0.9861,0.9781,1.0000,0.9952,0.9398,-0.9682,-9.7495,-1.0167,0.0215,-0.0492,-0.0059
P1Z,Z,87663,0.9876,0.9851,0.9884,1.0000,0.9360,-0.9945,-9.7795,-1.0520,0.0101,-0.0522,-0.0052
P1Z,Z,87683,0.9884,0.9914,0.9875,1.0000,0.9351,-1.0209,-9.7262,-1.0873,0.0041,-0.0398,0.0024
P1Z,Z,87703,0.9872,0.9897,0.9894,1.0000,0.9694,-0.9903,-9.7238,-1.0568,0.0109,-0.0322,-0.0009
P1Z,Z,87723,0.9872,0.9881,1.0000,0.9937,0.9698,-1.0311,-9.7801,-1.0676,0.0208,-0.0385,-0.0076
P1Z,Z,87743,0.9887,0.9864,0.9607,0.9926,1.0000,-0.9820,-9.7789,-1.0287,0.0157,-0.0211,-0.0009
P1Z,Z,87763,0.9861,0.9914,0.9865,1.0000,0.9515,-0.9760,-9.7298,-1.0203,0.0139,-0.0248,0.0059
P1Z,Z,87783,0.9895,0.9997,0.9554,0.9930,1.0000,-0.9299,-9.7465,-1.0526,0.0071,-0.0292,-0.0108
P1Z,Z,87803,0.9914,0.9864,0.9803,0.9926,1.0000,-1.0406,-9.7453,-1.0239,0.0009,-0.0448,-0.0218
P1Z,Z,87823,0.9854,0.9851,0.9879,0.9630,0.9670,-1.1448,-9.6861,-1.0179,-0.0017,-0.0264,-0.0049
P1Z,Z,87843,0.9876,0.9876,0.9870,0.9975,1.0000,-1.0095,-9.7525,-1.0287,0.0152,0.0017,0.0036
P1Z,Z,87863,0.9872,0.9864,0.9898,0.9836,1.0000,-0.9760,-9.7148,-1.0478,0.0115,-0.0217,-0.0141
P1Z,Z,87883,0.9876,0.9872,0.9683,0.9802,0.9896,-1.1065,-9.7447,-1.0861,0.0056,-0.0470,-0.0141
P1Z,Z,87903,0.9861,0.9860,0.9903,0.9926,1.0000,-1.1418,-9.6759,-1.0460,-0.0017,-0.0208,0.0003
P1Z,Z,87923,0.9895,0.9860,0.9894,0.9900,1.0000,-0.9790,-9.7058,-1.0466,0.0065,-0.0141,0.0068
P1Z,Z,98303,0.9384,0.6186,0.5502,0.0000,0.7337,1.2286,-9.4268,-1.8388,-0.0169,-0.0302,0.1001
P1Z,Z,98323,0.9387,0.6203,0.5535,0.0000,0.7849,1.3610,-9.6926,-2.1633,-0.0442,0.0416,0.0929
P1Z,Z,98343,0.9395,0.6174,0.5535,0.0000,0.7929,1.6520,-9.9579,-2.3920,-0.0970,0.1335,0.0834
P1Z,Z,98363,0.9376,0.6194,0.5559,0.0000,0.8206,1.8669,-9.9579,-2.5699,-0.1633,0.2745,0.0903
P1Z,Z,98383,0.9391,0.6182,0.5248,0.0000,0.7553,2.4860,-9.8938,-3.0722,-0.2192,0.5173,0.1524
P1Z,Z,98403,0.9361,0.6169,0.5492,0.0000,0.7670,3.3872,-9.7286,-3.3446,-0.3055,0.9070,0.1816
P1Z,Z,98423,0.9373,0.6140,0.5229,0.0000,0.7638,4.2997,-9.4448,-3.2165,-0.4363,1.2347,0.0573
P1Z,Z,98443,0.9387,0.6178,0.5497,0.0000,0.8022,4.5697,-9.2148,-2.7884,-0.5566,1.4341,-0.1561
P1Z,Z,98463,0.9380,0.6182,0.5263,0.0000,0.7342,4.0338,-9.2232,-2.2902,-0.6555,1.4922,-0.4189
P1Z,Z,98483,0.9399,0.6178,0.5492,0.0000,0.7600,2.7513,-9.0167,-1.6753,-0.7202,1.5872,-0.6243
P1Z,Z,98503,0.9387,0.6186,0.5344,0.0000,0.7464,1.7699,-9.1382,-1.2759,-0.6936,1.7552,-0.6364
P1Z,Z,98523,0.9391,0.6174,0.5205,0.0000,0.7206,1.0939,-9.0442,-1.3723,-0.7557,2.0907,-0.4105
P1Z,Z,98543,0.9373,0.6169,0.5449,0.0000,0.7534,1.6352,-8.8191,-0.8616,-0.9226,2.3403,-0.3134
P1Z,Z,98563,0.9384,0.6169,0.5282,0.0000,0.7760,1.4095,-8.7981,0.0659,-1.0315,2.2719,-0.3448
P1Z,Z,98583,0.9384,0.6169,0.5607,0.0000,0.8182,0.8101,-8.8586,0.9496,-1.0224,2.0883,-0.4799
P1Z,Z,98603,0.9376,0.6194,0.5177,0.0000,0.7778,-0.0527,-8.7915,1.5490,-0.9615,1.9299,-0.5355
P1Z,Z,98623,0.9391,0.6190,0.5555,0.0000,0.8013,-0.6437,-8.9071,2.2016,-0.8974,1.8830,-0.4379
P1Z,Z,98643,0.9402,0.6215,0.5540,0.0000,0.7736,-0.8365,-9.0891,3.1662,-0.8460,1.7295,-0.3325
P1Z,Z,98663,0.9391,0.6182,0.5177,0.0000,0.7177,-1.4837,-9.0346,3.8284,-0.7151,1.4320,-0.2200
P1Z,Z,98683,0.9373,0.6157,0.5502,0.0000,0.7797,-1.8112,-9.2987,4.3476,-0.5951,1.1715,-0.1796
P1Z,Z,98703,0.9384,0.6178,0.5913,0.0000,0.8060,-2.2753,-9.3807,4.9906,-0.5003,0.7838,-0.1175
P1Z,Z,98723,0.9358,0.6207,0.5473,0.0000,0.7783,-2.8189,-9.5406,5.4511,-0.3513,0.4483,-0.0441
P1Z,Z,98743,0.9406,0.6190,0.5454,0.0000,0.7487,-3.1686,-9.5986,5.6008,-0.2157,0.1402,0.1154
P1Z,Z,98763,0.9369,0.6182,0.5727,0.0000,0.8299,-3.3303,-9.2412,5.2762,-0.1003,-0.0581,0.3264
P1Z,Z,98783,0.9387,0.6165,0.5660,0.0000,0.7577,-2.6591,-9.0053,4.7835,0.0089,-0.1804,0.5291
P1Z,Z,98803,0.9373,0.6144,0.5646,0.0000,0.7882,-1.8034,-8.8077,4.0679,0.0409,-0.3818,0.6638
P1Z,Z,98823,0.9376,0.6132,0.5430,0.0000,0.7539,-0.8892,-8.5909,3.3866,0.0204,-0.6078,0.7127
P1Z,Z,98843,0.9376,0.6136,0.5488,0.0000,0.7595,-0.1934,-8.6059,2.8674,-0.0835,-0.8124,0.7099
P1Z,Z,98863,0.9358,0.6161,0.5454,0.0000,0.7342,0.4748,-8.4562,2.7998,-0.2192,-1.0279,0.6447
P1Z,Z,98883,0.9373,0.6178,0.5636,0.0000,0.7858,0.7065,-8.6221,2.9878,-0.2445,-1.2922,0.5850
P1Z,Z,98903,0.9358,0.6132,0.5416,0.0000,0.7858,0.9203,-8.4694,3.3231,-0.1688,-1.4607,0.4549
P1Z,Z,98923,0.9339,0.6132,0.5234,0.0000,0.7990,1.3292,-9.1562,3.3836,0.0069,-1.6662,0.3472
P1Z,Z,98943,0.9350,0.6132,0.5282,0.0000,0.7807,0.8592,-9.6358,3.0207,-0.0101,-1.9073,0.3215
P1Z,Z,98963,0.9346,0.6144,0.5454,0.0000,0.8384,0.2054,-9.7609,2.5046,-0.0743,-1.9605,0.4085
P1Z,Z,98983,0.9328,0.6211,0.5000,0.0000,0.7938,0.2233,-9.8765,2.0286,-0.1322,-1.8822,0.6098
P1Z,Z,99003,0.9313,0.6140,0.5311,0.0000,0.7384,0.5263,-9.7944,1.5981,-0.2224,-1.8303,0.7937
P1Z,Z,99023,0.9302,0.6115,0.5358,0.0000,0.7774,1.3622,-9.7639,1.2286,-0.2827,-1.8668,0.8411
P1Z,Z,99043,0.9320,0.6111,0.5181,0.0000,0.7041,1.6304,-9.6711,1.0496,-0.3746,-1.9922,0.8103
P1Z,Z,99063,0.9324,0.6124,0.5397,0.0000,0.7835,1.3717,-9.2298,0.9873,-0.4361,-2.0083,0.8175
P1Z,Z,99083,0.9328,0.6124,0.5373,0.0000,0.8206,1.6274,-8.9957,1.0155,-0.4618,-1.7853,0.8879
P1Z,Z,99103,0.9309,0.6119,0.5387,0.0000,0.7999,2.5184,-8.4766,1.0921,-0.4828,-1.5386,0.9129
P1Z,Z,99123,0.9313,0.6090,0.5048,0.0000,0.7534,3.5602,-8.8047,1.0586,-0.5561,-1.4281,0.8937
P1Z,Z,99143,0.9317,0.6119,0.5411,0.0000,0.7929,3.9075,-9.1256,0.9478,-0.7276,-1.3624,0.8062
P1Z,Z,99163,0.9298,0.6107,0.5330,0.0000,0.7675,3.9033,-9.3328,1.0903,-0.8134,-1.2781,0.6532
P1Z,Z,99183,0.9272,0.6103,0.5287,0.0000,0.8346,3.8189,-9.8489,1.1843,-0.7393,-1.0512,0.5800
P1Z,Z,99203,0.9313,0.6095,0.5138,0.0000,0.7548,4.1296,-10.7566,1.0364,-0.6654,-0.7129,0.5821
P1Z,Z,99223,0.9335,0.6099,0.5177,0.0000,0.7149,4.8511,-11.2338,1.2286,-0.6121,-0.3417,0.5273
P1Z,Z,99243,0.9290,0.6090,0.5354,0.0000,0.7379,5.4313,-11.4033,1.6388,-0.4723,-0.0473,0.3717
P1Z,Z,99263,0.9302,0.6070,0.5406,0.0000,0.8121,5.5618,-11.3404,1.9962,-0.2607,0.2165,0.1163
P1Z,Z,99283,0.9298,0.6065,0.5421,0.0000,0.8046,5.4289,-11.0997,2.0897,-0.0160,0.4482,-0.1717
P1Z,Z,99303,0.9302,0.6078,0.5531,0.0000,0.7736,4.8248,-10.7908,1.8705,0.1496,0.6867,-0.3953
P1Z,Z,99323,0.9290,0.6111,0.5430,0.0000,0.8079,4.3086,-10.3603,1.5418,0.2282,0.9970,-0.5088
P1Z,Z,99343,0.9283,0.6049,0.5296,0.0000,0.7915,4.1045,-9.9094,1.2520,0.2365,1.2939,-0.5898
P1Z,Z,99363,0.9257,0.6061,0.5449,0.0000,0.8041,3.9985,-9.5507,1.0215,0.1070,1.5631,-0.6756
P1Z,Z,99383,0.9279,0.6090,0.5411,0.0000,0.7839,3.8710,-8.9688,1.1502,-0.0822,1.7385,-0.7853
P1Z,Z,99403,0.9279,0.6103,0.5205,0.0000,0.7426,3.5566,-8.4035,1.3652,-0.1845,1.8129,-0.9044
P1Z,Z,99423,0.9298,0.6078,0.5282,0.0000,0.7905,3.1315,-8.4161,1.3424,-0.3063,1.9718,-0.9661
P1Z,Z,99443,0.9290,0.6070,0.5373,0.0000,0.7821,3.0381,-8.3442,1.9477,-0.4950,2.1794,-0.9924
P1Z,Z,99463,0.9268,0.6082,0.5440,0.0000,0.7947,3.1285,-8.3083,2.5178,-0.6703,2.2756,-0.9555
P1Z,Z,99483,0.9290,0.6095,0.5349,0.0000,0.7553,3.3219,-8.0215,3.3399,-0.7959,2.2968,-1.0028
P1Z,Z,99503,0.9264,0.6086,0.5598,0.0000,0.8173,2.9872,-7.9736,4.2853,-0.7937,2.1779,-1.1046
P1Z,Z,99523,0.9249,0.6078,0.5445,0.0000,0.8248,1.9974,-8.1838,4.8805,-0.7055,1.9985,-1.1702
P1Z,Z,99543,0.9276,0.6078,0.5244,0.0000,0.8201,0.7999,-8.3706,5.4098,-0.5796,1.9489,-1.1165
P1Z,Z,99563,0.9268,0.6082,0.5818,0.0000,0.7835,0.4437,-8.5784,5.7594,-0.4541,1.9406,-0.9503
P1Z,Z,99583,0.9268,0.6082,0.5593,0.0000,0.8149,0.1796,-8.4969,6.1079,-0.3806,1.7688,-0.7953
P1Z,Z,99603,0.9231,0.6082,0.5248,0.0000,0.7539,-0.0653,-8.4047,6.6959,-0.2757,1.5150,-0.7067
P1Z,Z,99623,0.9253,0.6095,0.5306,0.0000,0.7591,-0.7101,-8.5041,7.2276,-0.1202,1.0920,-0.6743
P1Z,Z,99643,0.9242,0.6161,0.5339,0.0000,0.7591,-1.5382,-8.7556,7.6263,0.0592,0.6932,-0.6298
P1Z,Z,99663,0.9242,0.6111,0.5368,0.0000,0.8168,-2.4729,-8.9454,7.7605,0.2630,0.2707,-0.4684
P1Z,Z,99683,0.9249,0.6111,0.5397,0.0000,0.8027,-2.8614,-9.2472,7.5455,0.4178,0.0045,-0.1743
P1Z,Z,99703,0.9261,0.6082,0.5287,0.0000,0.8243,-2.3280,-9.1795,7.4611,0.5137,-0.2025,0.1081
P1Z,Z,99723,0.9257,0.6082,0.5201,0.0000,0.7915,-1.3262,-9.2508,7.2773,0.6261,-0.4988,0.2659
P1Z,Z,99743,0.9253,0.6086,0.4957,0.0000,0.7248,-0.5670,-9.4064,6.7546,0.7103,-0.8299,0.3260
P1Z,Z,99763,0.9264,0.6086,0.5349,0.0000,0.7835,0.3251,-9.5915,5.8917,0.7822,-1.0515,0.3599
P1Z,Z,99783,0.9257,0.6070,0.5368,0.0000,0.7849,1.1640,-9.8411,5.2211,0.8855,-1.2340,0.2687
P1Z,Z,99803,0.9253,0.6082,0.5363,0.0000,0.8060,1.4658,-10.3034,4.5410,0.9936,-1.4548,0.1308
P1Z,Z,99823,0.9261,0.6078,0.5373,0.0000,0.7924,1.5412,-10.4040,3.8560,1.1127,-1.5733,-0.0057
P1Z,Z,99843,0.9279,0.6095,0.5397,0.0000,0.8196,1.6993,-10.7884,3.1129,1.1903,-1.6327,-0.1190
P1Z,Z,99863,0.9272,0.6111,0.5358,0.0000,0.8004,1.4023,-10.9680,2.3555,1.2120,-1.6495,-0.2529
P1Z,Z,99883,0.9257,0.6103,0.5363,0.0000,0.7858,1.0233,-10.9644,2.1148,1.2212,-1.6992,-0.3953
P1Z,Z,99903,0.9257,0.6065,0.5067,0.0000,0.7192,0.5281,-10.4854,2.0663,1.3095,-1.8870,-0.4964
P1Z,Z,99923,0.9268,0.6082,0.5473,0.0000,0.7933,-0.2132,-10.1016,1.7220,1.4297,-1.9919,-0.4970
P1Z,Z,99943,0.9302,0.6103,0.5358,0.0000,0.8093,-0.4694,-9.8681,1.2556,1.4845,-1.8544,-0.3079
P1Z,Z,99963,0.9264,0.6061,0.5373,0.0000,0.8051,0.0287,-9.3388,1.0484,1.4691,-1.5933,-0.0774
P1Z,Z,99983,0.9261,0.6086,0.5277,0.0000,0.7497,0.9844,-8.9921,0.7963,1.5098,-1.4599,0.1003
P1Z,Z,100003,0.9242,0.6057,0.5488,0.0000,0.8022,1.4652,-8.8604,0.0790,1.4887,-1.3531,0.1446
P1Z,Z,100023,0.9257,0.6090,0.5100,0.0000,0.7018,1.7424,-8.4287,-0.5760,1.4321,-1.2598,0.0917
P1Z,Z,100043,0.9249,0.6095,0.5301,0.0000,0.7300,1.7538,-8.3526,-1.2646,1.3703,-1.2096,0.0472
P1Z,Z,100063,0.9246,0.6111,0.5143,0.0000,0.7919,1.9939,-8.2508,-1.6556,1.2243,-1.1991,-0.0382
P1Z,Z,100083,0.9246,0.6111,0.5378,0.0000,0.8126,1.6077,-7.9868,-2.2399,1.0774,-1.2446,-0.0553
P1Z,Z,100103,0.9249,0.6090,0.5138,0.0000,0.8027,1.2897,-7.7970,-2.6890,0.8703,-1.0212,0.0085
P1Z,Z,100123,0.9249,0.6086,0.5091,0.0000,0.7581,1.6496,-7.7281,-2.8632,0.6833,-0.7101,0.1268
P1Z,Z,100143,0.9242,0.6099,0.5382,0.0000,0.7807,2.1004,-7.7156,-3.0052,0.4836,-0.5642,0.1442
P1Z,Z,100163,0.9246,0.6095,0.5349,0.0000,0.7581,2.1561,-7.7323,-3.0321,0.2920,-0.4482,0.1144
P1Z,Z,100183,0.9264,0.6103,0.5306,0.0000,0.7577,2.1274,-7.8581,-2.9716,0.1335,-0.3485,0.0861
P1Z,Z,100203,0.9261,0.6111,0.5215,0.0000,0.7487,2.0256,-8.0281,-2.7381,0.0365,-0.2864,0.0466
P1Z,Z,100223,0.9246,0.6119,0.5421,0.0000,0.8013,1.7717,-8.2473,-2.6022,-0.0108,-0.2258,0.0348
P1Z,Z,100243,0.9253,0.6182,0.5397,0.0000,0.7882,1.3807,-8.6544,-2.6806,-0.0785,-0.0585,0.0818
P1Z,Z,100263,0.9208,0.6103,0.5449,0.0000,0.8154,1.2765,-8.9047,-2.5244,-0.1736,0.1516,0.1589
P1Z,Z,100283,0.9257,0.6111,0.5397,0.0000,0.7821,1.3550,-9.1574,-2.3441,-0.1852,0.2505,0.1655
P1Z,Z,100303,0.9238,0.6119,0.4737,0.0000,0.7581,1.3789,-9.5430,-2.5052,-0.2094,0.3718,0.1763
P1Z,Z,100323,0.9249,0.6128,0.5454,0.0000,0.7520,1.4963,-9.8112,-2.5381,-0.2673,0.5345,0.2116
P1Z,Z,100343,0.9223,0.6124,0.5430,0.0000,0.7487,1.6705,-10.0932,-2.5363,-0.3135,0.6824,0.2397
P1Z,Z,100363,0.9264,0.6111,0.5808,0.0000,0.7788,2.0903,-10.1423,-2.5902,-0.3397,0.9220,0.2876
P1Z,Z,100383,0.9223,0.6119,0.5521,0.0000,0.8013,2.8680,-10.0543,-2.6746,-0.3601,1.1058,0.2705
P1Z,Z,100403,0.9227,0.6124,0.5421,0.0000,0.7858,3.3866,-10.0088,-2.4968,-0.4303,1.2448,0.1123
P1Z,Z,100423,0.9231,0.6128,0.5416,0.0000,0.7346,3.1818,-9.6968,-2.0735,-0.4700,1.3287,-0.0560
P1Z,Z,100443,0.9253,0.6115,0.5464,0.0000,0.8135,2.8513,-9.6400,-2.0447,-0.4515,1.4993,-0.1374
P1Z,Z,100463,0.9249,0.6128,0.5650,0.0000,0.8088,2.6363,-9.6992,-1.7993,-0.5103,1.6746,-0.1808
P1Z,Z,100483,0.9276,0.6119,0.5411,0.0000,0.8093,2.2429,-9.4190,-1.3969,-0.5845,1.7921,-0.1800
P1Z,Z,100503,0.9238,0.6149,0.5392,0.0000,0.8116,2.0579,-9.4412,-1.0927,-0.6546,1.9145,-0.1972
P1Z,Z,100523,0.9246,0.6194,0.5378,0.0000,0.8055,1.6400,-9.3753,-0.2730,-0.6979,1.8843,-0.2900
P1Z,Z,100543,0.9234,0.6128,0.5378,0.0000,0.7684,0.7916,-9.4088,0.2191,-0.6508,1.8247,-0.3259
P1Z,Z,100563,0.9253,0.6132,0.5622,0.0000,0.7952,0.2838,-9.6328,0.6089,-0.5962,1.8499,-0.2577
P1Z,Z,100583,0.9238,0.6149,0.5368,0.0000,0.7501,0.0096,-9.6513,1.3592,-0.5970,1.7343,-0.2322
P1Z,Z,100603,0.9234,0.6140,0.5665,0.0000,0.7605,-0.7179,-9.4226,1.7400,-0.5355,1.6431,-0.1460
P1Z,Z,100623,0.9238,0.6161,0.5378,0.0000,0.7525,-0.6407,-9.4268,1.6933,-0.5087,1.6675,-0.0358
P1Z,Z,100643,0.9268,0.6132,0.4966,0.0000,0.7389,-0.4365,-9.3082,2.0801,-0.5685,1.5388,-0.0357
P1Z,Z,100663,0.9253,0.6157,0.5349,0.0000,0.7581,-0.7550,-9.2687,2.6219,-0.6131,1.2712,-0.0787
P1Z,Z,100683,0.9242,0.6149,0.5392,0.0000,0.8008,-1.0340,-9.3603,3.2363,-0.6182,0.9958,-0.1142
P1Z,Z,100703,0.9246,0.6136,0.5363,0.0000,0.7933,-1.4879,-9.2825,3.9512,-0.5445,0.7113,-0.1446
P1Z,Z,100723,0.9253,0.6140,0.5655,0.0000,0.7656,-1.8274,-9.7172,4.5948,-0.4038,0.3957,-0.1696
P1Z,Z,100743,0.9249,0.6144,0.5244,0.0000,0.7206,-2.3357,-9.8375,4.7745,-0.2614,0.1050,-0.0986
P1Z,Z,100763,0.9231,0.6136,0.5181,0.0000,0.7985,-2.4956,-9.7352,4.7146,-0.1395,-0.0226,0.0578
P1Z,Z,100783,0.9231,0.6149,0.5315,0.0000,0.7849,-1.9537,-9.5358,4.4613,-0.0353,-0.0937,0.2170
P1Z,Z,100803,0.9234,0.6128,0.5387,0.0000,0.8027,-1.4442,-9.3262,4.0224,0.0485,-0.2587,0.3002
P1Z,Z,100823,0.9257,0.6157,0.5545,0.0000,0.7872,-0.9448,-9.0490,3.4416,0.1071,-0.4363,0.3471
P1Z,Z,100843,0.9238,0.6153,0.5349,0.0000,0.7445,-0.6652,-8.7406,2.9692,0.1131,-0.6114,0.4037
P1Z,Z,100863,0.9231,0.6140,0.5306,0.0000,0.7201,-0.1545,-8.3886,2.7788,0.0787,-0.6999,0.4446
P1Z,Z,100883,0.9231,0.6119,0.5425,0.0000,0.7980,0.1395,-8.2317,2.4603,0.0613,-0.8418,0.4764
P1Z,Z,100903,0.9238,0.6186,0.5378,0.0000,0.7802,0.2611,-8.1509,2.2585,-0.0288,-0.9595,0.4970
P1Z,Z,100923,0.9212,0.6136,0.5425,0.0000,0.8098,0.4437,-8.2035,2.2507,-0.1466,-1.0866,0.5397
P1Z,Z,100943,0.9193,0.6157,0.5732,0.0000,0.8065,0.3563,-8.1497,2.4818,-0.2821,-1.1670,0.6247
P1Z,Z,100963,0.9164,0.6149,0.5009,0.0000,0.7412,0.3245,-7.9688,2.5244,-0.3524,-1.1169,0.7276
P1Z,Z,100983,0.9164,0.6165,0.5622,0.0000,0.8065,0.9281,-7.9443,2.4064,-0.3138,-0.9273,0.7193
P1Z,Z,101003,0.9164,0.6153,0.5335,0.0000,0.7807,2.3256,-8.1215,2.1759,-0.2354,-1.0320,0.5915
P1Z,Z,101023,0.9179,0.6174,0.5411,0.0000,0.8149,2.3136,-8.2832,2.0064,-0.1366,-1.4465,0.5319
P1Z,Z,101043,0.9208,0.6140,0.5354,0.0000,0.7811,1.3586,-8.9969,1.6107,-0.0072,-1.7714,0.5548
P1Z,Z,101063,0.9149,0.6132,0.5263,0.0000,0.7469,0.9945,-9.7896,1.3963,-0.0360,-1.8684,0.6602
P1Z,Z,101083,0.9152,0.6119,0.5210,0.0000,0.7623,1.0149,-9.9154,1.3646,-0.1171,-1.8615,0.8621
P1Z,Z,101103,0.9123,0.6136,0.5244,0.0000,0.7891,1.3897,-9.9357,1.2622,-0.1198,-1.7726,1.0694
P1Z,Z,101123,0.9171,0.6099,0.5282,0.0000,0.7891,2.3603,-10.3040,0.9454,-0.0701,-1.7901,1.1775
P1Z,Z,101143,0.9141,0.6111,0.5210,0.0000,0.7318,2.8070,-10.3740,0.4371,-0.0512,-1.9340,1.1596
P1Z,Z,101163,0.9089,0.6070,0.5253,0.0000,0.7609,3.2854,-10.5207,0.0551,-0.1190,-1.9756,1.1178
P1Z,Z,101183,0.9179,0.6119,0.4899,0.0000,0.7830,3.8039,-10.5710,-0.3024,-0.3028,-1.8425,1.1251
P1Z,Z,101203,0.9145,0.6074,0.5363,0.0000,0.8027,4.6625,-10.1465,-0.3126,-0.4442,-1.5304,1.1587
P1Z,Z,101223,0.9149,0.6115,0.5205,0.0000,0.7623,5.7792,-10.0297,-0.2862,-0.3757,-1.1535,1.0015
P1Z,Z,101243,0.9149,0.6103,0.5253,0.0000,0.7562,6.5875,-10.5165,-0.4137,-0.3268,-0.8765,0.7330
P1Z,Z,101263,0.9134,0.6103,0.5239,0.0000,0.7647,6.7540,-10.5345,-0.4778,-0.3383,-0.6500,0.4310
P1Z,Z,101283,0.9149,0.6115,0.5392,0.0000,0.7600,6.5767,-10.3237,-0.4161,-0.3163,-0.4138,0.1211
P1Z,Z,101303,0.9145,0.6107,0.5258,0.0000,0.7844,6.0145,-10.2585,-0.4455,-0.2904,-0.0979,-0.1023
P1Z,Z,101323,0.9160,0.6103,0.5330,0.0000,0.8149,5.4630,-10.0040,-0.4916,-0.3234,0.3052,-0.2401
P1Z,Z,101343,0.9149,0.6115,0.5330,0.0000,0.7924,5.0948,-9.6244,-0.3299,-0.3613,0.6464,-0.3260
P1Z,Z,101363,0.9145,0.6095,0.5201,0.0000,0.7436,4.7493,-9.2220,-0.2658,-0.3942,0.9072,-0.4072
P1Z,Z,101383,0.9149,0.6111,0.5248,0.0000,0.7445,4.7194,-8.9693,-0.1102,-0.4772,1.1540,-0.4588
P1Z,Z,101403,0.9156,0.6103,0.5229,0.0000,0.7037,4.7122,-8.8179,0.2365,-0.5955,1.2925,-0.5680
P1Z,Z,101423,0.9137,0.6086,0.5392,0.0000,0.8182,4.3314,-8.6700,0.5012,-0.7023,1.4742,-0.6378
P1Z,Z,101443,0.9141,0.6111,0.5205,0.0000,0.7300,4.2272,-8.5736,0.7449,-0.8532,1.7064,-0.6278
P1Z,Z,101463,0.9149,0.6095,0.5258,0.0000,0.7384,4.3991,-8.6682,1.6166,-1.0084,1.8695,-0.6925
P1Z,Z,101483,0.9137,0.6111,0.4823,0.0000,0.7577,4.1170,-8.5472,2.3244,-1.0424,1.8838,-0.7950
P1Z,Z,101503,0.9149,0.6107,0.5808,0.0000,0.8257,3.8721,-8.4520,2.4196,-1.0525,2.0286,-0.8319
P1Z,Z,101523,0.9141,0.6086,0.5067,0.0000,0.7309,3.8602,-8.3580,2.8309,-1.1273,2.1715,-0.8615
P1Z,Z,101543,0.9119,0.6090,0.5229,0.0000,0.8037,3.6051,-8.2706,3.4201,-1.1699,2.1480,-0.9513
P1Z,Z,101563,0.9141,0.6103,0.5052,0.0000,0.7915,3.0189,-8.1820,4.0087,-1.1469,2.0462,-1.0540
P1Z,Z,101618,0.9137,0.6078,0.5239,0.0000,0.7844,0.0000,0.0000,0.0000,0.0000,0.0000,0.0000
P1Z,Z,101622,0.9238,0.5974,0.5162,0.0000,0.7581,0.0000,0.0000,0.0000,0.0000,0.0000,0.0000
P1Z,Z,101624,0.9123,0.6078,0.5220,0.0000,0.7699,0.0000,0.0000,0.0000,0.0000,0.0000,0.0000
P1Z,Z,101643,0.9130,0.6095,0.5315,0.0000,0.7915,0.0000,0.0000,0.0000,0.0000,0.0000,0.0000
P1Z,Z,101664,0.9126,0.6086,0.5172,0.0000,0.7656,0.0000,0.0000,0.0000,0.0000,0.0000,0.0000
P1Z,Z,101683,0.9134,0.6078,0.5358,0.0000,0.7638,0.0000,0.0000,0.0000,0.0000,0.0000,0.0000
P1Z,Z,101703,0.9104,0.6082,0.5177,0.0000,0.7976,0.0000,0.0000,0.0000,0.0000,0.0000,0.0000
P1Z,Z,101723,0.9137,0.6078,0.5315,0.0000,0.7426,0.0000,0.0000,0.0000,0.0000,0.0000,0.0000
P1Z,Z,101743,0.9126,0.6082,0.5239,0.0000,0.8154,0.0000,0.0000,0.0000,0.0000,0.0000,0.0000
P1Z,Z,101763,0.9126,0.6099,0.5277,0.0000,0.7746,0.0000,0.0000,0.0000,0.0000,0.0000,0.0000
P1Z,Z,101783,0.9119,0.6074,0.5134,0.0000,0.7492,0.0000,0.0000,0.0000,0.0000,0.0000,0.0000
P1Z,Z,101803,0.9123,0.6090,0.5210,0.0000,0.7966,0.0000,0.0000,0.0000,0.0000,0.0000,0.0000
P1Z,Z,101823,0.9126,0.6090,0.5225,0.0000,0.7797,0.0000,0.0000,0.0000,0.0000,0.0000,0.0000
P1Z,Z,101843,0.9137,0.6074,0.5119,0.0000,0.7234,0.0000,0.0000,0.0000,0.0000,0.0000,0.0000
P1Z,Z,101863,0.9111,0.6070,0.5201,0.0000,0.7689,0.0000,0.0000,0.0000,0.0000,0.0000,0.0000
P1Z,Z,101883,0.9126,0.6086,0.5162,0.0000,0.7708,0.0000,0.0000,0.0000,0.0000,0.0000,0.0000
P1Z,Z,101903,0.9104,0.6074,0.4966,0.0000,0.7717,0.0000,0.0000,0.0000,0.0000,0.0000,0.0000
P1Z,Z,101923,0.9141,0.6099,0.5234,0.0000,0.7642,0.0000,0.0000,0.0000,0.0000,0.0000,0.0000
P1Z,Z,101943,0.9134,0.6074,0.5263,0.0000,0.7699,0.0000,0.0000,0.0000,0.0000,0.0000,0.0000
P1Z,Z,101963,0.9123,0.6090,0.5076,0.0000,0.7361,0.0000,0.0000,0.0000,0.0000,0.0000,0.0000
P1Z,Z,101983,0.9126,0.6090,0.5335,0.0000,0.7633,0.0000,0.0000,0.0000,0.0000,0.0000,0.0000
P1Z,Z,102003,0.9137,0.6049,0.5421,0.0000,0.7933,0.0000,0.0000,0.0000,0.0000,0.0000,0.0000
P1Z,Z,102023,0.9134,0.6082,0.5177,0.0000,0.7506,0.0000,0.0000,0.0000,0.0000,0.0000,0.0000
P1Z,Z,102043,0.9152,0.6053,0.5225,0.0000,0.7694,0.0000,0.0000,0.0000,0.0000,0.0000,0.0000
P1Z,Z,102063,0.9123,0.6090,0.5253,0.0000,0.7577,0.0000,0.0000,0.0000,0.0000,0.0000,0.0000
P1Z,Z,102083,0.9182,0.6124,0.5196,0.0000,0.7332,0.0000,0.0000,0.0000,0.0000,0.0000,0.0000
P1Z,Z,102103,0.9141,0.6115,0.5071,0.0000,0.7567,0.0000,0.0000,0.0000,0.0000,0.0000,0.0000
P1Z,Z,102123,0.9130,0.6082,0.5143,0.0000,0.7623,0.0000,0.0000,0.0000,0.0000,0.0000,0.0000
P1Z,Z,102143,0.9123,0.6111,0.5033,0.0000,0.7473,0.0000,0.0000,0.0000,0.0000,0.0000,0.0000
P1Z,Z,102163,0.9145,0.6111,0.5081,0.0000,0.7750,0.0000,0.0000,0.0000,0.0000,0.0000,0.0000
P1Z,Z,102183,0.9126,0.6099,0.4981,0.0000,0.7727,0.0000,0.0000,0.0000,0.0000,0.0000,0.0000
P1Z,Z,102203,0.9130,0.6107,0.5229,0.0000,0.7858,0.0000,0.0000,0.0000,0.0000,0.0000,0.0000
P1Z,Z,102223,0.9134,0.6099,0.5191,0.0000,0.7680,0.0000,0.0000,0.0000,0.0000,0.0000,0.0000
P1Z,Z,102243,0.9134,0.6103,0.5325,0.0000,0.8323,0.0000,0.0000,0.0000,0.0000,0.0000,0.0000
P1Z,Z,102263,0.9134,0.6111,0.5076,0.0000,0.7370,0.0000,0.0000,0.0000,0.0000,0.0000,0.0000
P1Z,Z,102283,0.9119,0.6153,0.5335,0.0000,0.7506,0.0000,0.0000,0.0000,0.0000,0.0000,0.0000
P1Z,Z,102303,0.9123,0.6090,0.5100,0.0000,0.7980,0.0000,0.0000,0.0000,0.0000,0.0000,0.0000
P1Z,Z,102323,0.9126,0.6115,0.5440,0.0000,0.7614,0.0000,0.0000,0.0000,0.0000,0.0000,0.0000
P1Z,Z,102343,0.9126,0.6103,0.5660,0.0000,0.7699,0.0000,0.0000,0.0000,0.0000,0.0000,0.0000
P1Z,Z,102363,0.9130,0.6103,0.5440,0.0000,0.8004,0.0000,0.0000,0.0000,0.0000,0.0000,0.0000
P1Z,Z,102383,0.9137,0.6124,0.5205,0.0000,0.7868,0.0000,0.0000,0.0000,0.0000,0.0000,0.0000
P1Z,Z,102403,0.9160,0.6107,0.5248,0.0000,0.7243,0.0000,0.0000,0.0000,0.0000,0.0000,0.0000
P1Z,Z,102423,0.9126,0.6132,0.5248,0.0000,0.7760,0.0000,0.0000,0.0000,0.0000,0.0000,0.0000
P1Z,Z,102443,0.9119,0.6103,0.5454,0.0000,0.7830,0.0000,0.0000,0.0000,0.0000,0.0000,0.0000
P1Z,Z,102463,0.9119,0.6099,0.5344,0.0000,0.7990,0.0000,0.0000,0.0000,0.0000,0.0000,0.0000
P1Z,Z,102483,0.9134,0.6136,0.5110,0.0000,0.7638,0.0000,0.0000,0.0000,0.0000,0.0000,0.0000
P1Z,Z,102503,0.9126,0.6111,0.5220,0.0000,0.7309,0.0000,0.0000,0.0000,0.0000,0.0000,0.0000
P1Z,Z,102523,0.9134,0.6140,0.5335,0.0000,0.7755,0.0000,0.0000,0.0000,0.0000,0.0000,0.0000
P1Z,Z,102543,0.9108,0.6124,0.5335,0.0000,0.7346,0.0000,0.0000,0.0000,0.0000,0.0000,0.0000
P1Z,Z,102563,0.9130,0.6144,0.5540,0.0000,0.7572,0.0000,0.0000,0.0000,0.0000,0.0000,0.0000
P1Z,Z,102583,0.9123,0.6107,0.5650,0.0000,0.7408,0.0000,0.0000,0.0000,0.0000,0.0000,0.0000
P1Z,Z,102603,0.9115,0.6144,0.5382,0.0000,0.7577,0.0000,0.0000,0.0000,0.0000,0.0000,0.0000
P1Z,Z,102623,0.9063,0.6136,0.5306,0.0000,0.7323,0.0000,0.0000,0.0000,0.0000,0.0000,0.0000
P1Z,Z,102643,0.9119,0.6136,0.5368,0.0000,0.7539,0.0000,0.0000,0.0000,0.0000,0.0000,0.0000
P1Z,Z,102663,0.9126,0.6169,0.5229,0.0000,0.7647,0.0000,0.0000,0.0000,0.0000,0.0000,0.0000
P1Z,Z,102683,0.9115,0.6132,0.5292,0.0000,0.7586,0.0000,0.0000,0.0000,0.0000,0.0000,0.0000
P1Z,Z,102703,0.9111,0.6140,0.5282,0.0000,0.7633,0.0000,0.0000,0.0000,0.0000,0.0000,0.0000
P1Z,Z,102723,0.9126,0.6124,0.5158,0.0000,0.7483,0.0000,0.0000,0.0000,0.0000,0.0000,0.0000
P1Z,Z,102743,0.9111,0.6124,0.5296,0.0000,0.7727,0.0000,0.0000,0.0000,0.0000,0.0000,0.0000
P1Z,Z,102763,0.9123,0.6128,0.5153,0.0000,0.7717,0.0000,0.0000,0.0000,0.0000,0.0000,0.0000
P1Z,Z,102783,0.9130,0.6124,0.5306,0.0000,0.7684,0.0000,0.0000,0.0000,0.0000,0.0000,0.0000
P1Z,Z,102803,0.9119,0.6124,0.5162,0.0000,0.7398,0.0000,0.0000,0.0000,0.0000,0.0000,0.0000
P1Z,Z,102823,0.9093,0.6124,0.5646,0.0000,0.7853,0.0000,0.0000,0.0000,0.0000,0.0000,0.0000
P1Z,Z,102843,0.9126,0.6115,0.5502,0.0000,0.7844,0.0000,0.0000,0.0000,0.0000,0.0000,0.0000
P1Z,Z,102863,0.9119,0.6107,0.5320,0.0000,0.7708,0.0000,0.0000,0.0000,0.0000,0.0000,0.0000
P1Z,Z,102883,0.9104,0.6128,0.5248,0.0000,0.7915,0.0000,0.0000,0.0000,0.0000,0.0000,0.0000
P1Z,Z,102903,0.9089,0.6111,0.5411,0.0000,0.8041,0.0000,0.0000,0.0000,0.0000,0.0000,0.0000
P1Z,Z,102923,0.9108,0.6111,0.5282,0.0000,0.7694,0.0000,0.0000,0.0000,0.0000,0.0000,0.0000
P1Z,Z,102943,0.9126,0.6119,0.5258,0.0000,0.7741,0.0000,0.0000,0.0000,0.0000,0.0000,0.0000
P1Z,Z,102963,0.9134,0.6086,0.5229,0.0000,0.7412,0.0000,0.0000,0.0000,0.0000,0.0000,0.0000
P1Z,Z,102983,0.9108,0.6111,0.5009,0.0000,0.7520,0.0000,0.0000,0.0000,0.0000,0.0000,0.0000
P1Z,Z,103003,0.9111,0.6099,0.5411,0.0000,0.7577,0.0000,0.0000,0.0000,0.0000,0.0000,0.0000
P1Z,Z,103023,0.9100,0.6107,0.5416,0.0000,0.7633,0.0000,0.0000,0.0000,0.0000,0.0000,0.0000
P1Z,Z,103043,0.9108,0.6086,0.5196,0.0000,0.7548,0.0000,0.0000,0.0000,0.0000,0.0000,0.0000
P1Z,Z,103063,0.9082,0.6099,0.5339,0.0000,0.7872,0.0000,0.0000,0.0000,0.0000,0.0000,0.0000
P1Z,Z,103083,0.9096,0.6095,0.4923,0.0000,0.7572,0.0000,0.0000,0.0000,0.0000,0.0000,0.0000
P1Z,Z,103103,0.9134,0.6115,0.5071,0.0000,0.7821,0.0000,0.0000,0.0000,0.0000,0.0000,0.0000
P1Z,Z,103123,0.9104,0.6103,0.5215,0.0000,0.7168,0.0000,0.0000,0.0000,0.0000,0.0000,0.0000
P1Z,Z,103143,0.9093,0.6132,0.5138,0.0000,0.7619,0.0000,0.0000,0.0000,0.0000,0.0000,0.0000
P1Z,Z,103163,0.9111,0.6082,0.5301,0.0000,0.7858,0.0000,0.0000,0.0000,0.0000,0.0000,0.0000
P1Z,Z,103183,0.9085,0.6107,0.5201,0.0000,0.7764,0.0000,0.0000,0.0000,0.0000,0.0000,0.0000
P1Z,Z,103203,0.9100,0.6086,0.5067,0.0000,0.7680,0.0000,0.0000,0.0000,0.0000,0.0000,0.0000
P1Z,Z,103223,0.9160,0.6090,0.5244,0.0000,0.7938,0.0000,0.0000,0.0000,0.0000,0.0000,0.0000
P1Z,Z,103243,0.9089,0.6074,0.5105,0.0000,0.8116,0.0000,0.0000,0.0000,0.0000,0.0000,0.0000
P1Z,Z,103263,0.9074,0.6103,0.5129,0.0000,0.7708,0.0000,0.0000,0.0000,0.0000,0.0000,0.0000
P1Z,Z,103283,0.9085,0.6065,0.5158,0.0000,0.7670,0.0000,0.0000,0.0000,0.0000,0.0000,0.0000
P1Z,Z,103303,0.9093,0.6086,0.5158,0.0000,0.7919,0.0000,0.0000,0.0000,0.0000,0.0000,0.0000
P1Z,Z,103323,0.9074,0.6095,0.5129,0.0000,0.7933,0.0000,0.0000,0.0000,0.0000,0.0000,0.0000
P1Z,Z,103343,0.9085,0.6065,0.5172,0.0000,0.7600,0.0000,0.0000,0.0000,0.0000,0.0000,0.0000
P1Z,Z,103363,0.9074,0.6053,0.5287,0.0000,0.7379,0.0000,0.0000,0.0000,0.0000,0.0000,0.0000
P1Z,Z,103383,0.9078,0.6053,0.5000,0.0000,0.7713,0.0000,0.0000,0.0000,0.0000,0.0000,0.0000
P1Z,Z,103403,0.9063,0.6128,0.5129,0.0000,0.7966,0.0000,0.0000,0.0000,0.0000,0.0000,0.0000
P1Z,Z,103423,0.9096,0.6041,0.5100,0.0000,0.7572,0.0000,0.0000,0.0000,0.0000,0.0000,0.0000
P1Z,Z,103443,0.9089,0.6086,0.5177,0.0000,0.7581,0.0000,0.0000,0.0000,0.0000,0.0000,0.0000
P1Z,Z,103463,0.9085,0.6070,0.5239,0.0000,0.7713,0.0000,0.0000,0.0000,0.0000,0.0000,0.0000
P1Z,Z,103483,0.9082,0.5986,0.5349,0.0000,0.7760,0.0000,0.0000,0.0000,0.0000,0.0000,0.0000
P1Z,Z,103503,0.9100,0.6065,0.5473,0.0000,0.7642,0.0000,0.0000,0.0000,0.0000,0.0000,0.0000
P1Z,Z,103523,0.9082,0.6078,0.5081,0.0000,0.7788,0.0000,0.0000,0.0000,0.0000,0.0000,0.0000
P1Z,Z,103543,0.9082,0.6041,0.5138,0.0000,0.7591,0.0000,0.0000,0.0000,0.0000,0.0000,0.0000
P1Z,Z,103563,0.9070,0.6065,0.5449,0.0000,0.7605,0.0000,0.0000,0.0000,0.0000,0.0000,0.0000
P1Z,Z,103583,0.9078,0.6078,0.5071,0.0000,0.7910,0.0000,0.0000,0.0000,0.0000,0.0000,0.0000
P1Z,Z,103603,0.9078,0.6045,0.5048,0.0000,0.7361,0.0000,0.0000,0.0000,0.0000,0.0000,0.0000
P1Z,Z,103623,0.9082,0.6061,0.5052,0.0000,0.7520,0.0000,0.0000,0.0000,0.0000,0.0000,0.0000
P1Z,Z,103643,0.9067,0.6053,0.5091,0.0000,0.7450,0.0000,0.0000,0.0000,0.0000,0.0000,0.0000
P1Z,Z,103663,0.9055,0.6065,0.5220,0.0000,0.7530,0.0000,0.0000,0.0000,0.0000,0.0000,0.0000
P1Z,Z,103683,0.9074,0.6049,0.5081,0.0000,0.8046,0.0000,0.0000,0.0000,0.0000,0.0000,0.0000
P1Z,Z,103703,0.9070,0.6061,0.5248,0.0000,0.7811,0.0000,0.0000,0.0000,0.0000,0.0000,0.0000
P1Z,Z,103723,0.9074,0.6041,0.5143,0.0000,0.7642,0.0000,0.0000,0.0000,0.0000,0.0000,0.0000
P1Z,Z,103743,0.9052,0.6070,0.5287,0.0000,0.7774,0.0000,0.0000,0.0000,0.0000,0.0000,0.0000
P1Z,Z,103763,0.9014,0.6053,0.5196,0.0000,0.8018,0.0000,0.0000,0.0000,0.0000,0.0000,0.0000
P1Z,Z,103783,0.9040,0.6024,0.5071,0.0000,0.7900,0.0000,0.0000,0.0000,0.0000,0.0000,0.0000
P1Z,Z,103803,0.9074,0.6045,0.5067,0.0000,0.7562,0.0000,0.0000,0.0000,0.0000,0.0000,0.0000
P1Z,Z,103823,0.9052,0.6045,0.5167,0.0000,0.7830,0.0000,0.0000,0.0000,0.0000,0.0000,0.0000
P1Z,Z,103843,0.9078,0.6053,0.4933,0.0000,0.7882,0.0000,0.0000,0.0000,0.0000,0.0000,0.0000
P1Z,Z,103863,0.9052,0.6053,0.5071,0.0000,0.7633,0.0000,0.0000,0.0000,0.0000,0.0000,0.0000
P1Z,Z,103883,0.9085,0.6065,0.4928,0.0000,0.7877,0.0000,0.0000,0.0000,0.0000,0.0000,0.0000
P1Z,Z,103903,0.9070,0.6078,0.5095,0.0000,0.7844,0.0000,0.0000,0.0000,0.0000,0.0000,0.0000
P1Z,Z,103923,0.9052,0.6061,0.4995,0.0000,0.7708,0.0000,0.0000,0.0000,0.0000,0.0000,0.0000
P1Z,Z,103943,0.9048,0.6049,0.5430,0.0000,0.7267,0.0000,0.0000,0.0000,0.0000,0.0000,0.0000
P1Z,Z,103963,0.9055,0.6070,0.5091,0.0000,0.7652,0.0000,0.0000,0.0000,0.0000,0.0000,0.0000
P1Z,Z,103983,0.9093,0.6036,0.5000,0.0000,0.7797,0.0000,0.0000,0.0000,0.0000,0.0000,0.0000
P1Z,Z,104003,0.9055,0.6041,0.5105,0.0000,0.7708,0.0000,0.0000,0.0000,0.0000,0.0000,0.0000
P1Z,Z,104023,0.9052,0.6070,0.5210,0.0000,0.7722,0.0000,0.0000,0.0000,0.0000,0.0000,0.0000
P1Z,Z,104043,0.9052,0.6078,0.5119,0.0000,0.7792,0.0000,0.0000,0.0000,0.0000,0.0000,0.0000
P1Z,Z,104063,0.9040,0.6065,0.5248,0.0000,0.7811,0.0000,0.0000,0.0000,0.0000,0.0000,0.0000
P1Z,Z,104083,0.9052,0.6074,0.5148,0.0000,0.7882,0.0000,0.0000,0.0000,0.0000,0.0000,0.0000
P1Z,Z,104103,0.9063,0.6053,0.5215,0.0000,0.7680,0.0000,0.0000,0.0000,0.0000,0.0000,0.0000
P1Z,Z,104123,0.9070,0.6074,0.5124,0.0000,0.7530,0.0000,0.0000,0.0000,0.0000,0.0000,0.0000
P1Z,Z,104143,0.9085,0.6057,0.5205,0.0000,0.7891,0.0000,0.0000,0.0000,0.0000,0.0000,0.0000
P1Z,Z,104163,0.9063,0.6053,0.5134,0.0000,0.7619,0.0000,0.0000,0.0000,0.0000,0.0000,0.0000
P1Z,Z,104183,0.9078,0.6078,0.5196,0.0000,0.7802,0.0000,0.0000,0.0000,0.0000,0.0000,0.0000
P1Z,Z,104203,0.9067,0.6099,0.5172,0.0000,0.7727,0.0000,0.0000,0.0000,0.0000,0.0000,0.0000
P1Z,Z,104223,0.9055,0.6049,0.5320,0.0000,0.7760,0.0000,0.0000,0.0000,0.0000,0.0000,0.0000
P1Z,Z,104243,0.9089,0.6070,0.5052,0.0000,0.7783,0.0000,0.0000,0.0000,0.0000,0.0000,0.0000
P1Z,Z,104263,0.9096,0.6103,0.5091,0.0000,0.7807,0.0000,0.0000,0.0000,0.0000,0.0000,0.0000
P1Z,Z,104283,0.9134,0.6024,0.5067,0.0000,0.7792,0.0000,0.0000,0.0000,0.0000,0.0000,0.0000
P1Z,Z,104303,0.9123,0.6049,0.5588,0.0000,0.7107,0.0000,0.0000,0.0000,0.0000,0.0000,0.0000
P1Z,Z,104323,0.9070,0.6053,0.5258,0.0000,0.7389,0.0000,0.0000,0.0000,0.0000,0.0000,0.0000
P1Z,Z,104343,0.9074,0.6028,0.5248,0.0000,0.7332,0.0000,0.0000,0.0000,0.0000,0.0000,0.0000
P1Z,Z,104363,0.9082,0.6082,0.5363,0.0000,0.7792,0.0000,0.0000,0.0000,0.0000,0.0000,0.0000
P1Z,Z,104383,0.9152,0.6065,0.5335,0.0000,0.7492,0.0000,0.0000,0.0000,0.0000,0.0000,0.0000
P1Z,Z,104403,0.9082,0.5941,0.5129,0.0000,0.7511,0.0000,0.0000,0.0000,0.0000,0.0000,0.0000
P1Z,Z,104423,0.9063,0.6061,0.5220,0.0000,0.7868,0.0000,0.0000,0.0000,0.0000,0.0000,0.0000
P1Z,Z,104443,0.9082,0.6090,0.5158,0.0000,0.7727,0.0000,0.0000,0.0000,0.0000,0.0000,0.0000
P1Z,Z,104463,0.9074,0.6095,0.5196,0.0000,0.7666,0.0000,0.0000,0.0000,0.0000,0.0000,0.0000
P1Z,Z,104483,0.9082,0.6024,0.5272,0.0000,0.7886,0.0000,0.0000,0.0000,0.0000,0.0000,0.0000
P1Z,Z,104503,0.9063,0.6086,0.5210,0.0000,0.7825,0.0000,0.0000,0.0000,0.0000,0.0000,0.0000
P1Z,Z,104523,0.9096,0.6086,0.5239,0.0000,0.7553,0.0000,0.0000,0.0000,0.0000,0.0000,0.0000
P1Z,Z,104543,0.9093,0.6103,0.5325,0.0000,0.7318,0.0000,0.0000,0.0000,0.0000,0.0000,0.0000
P1Z,Z,104563,0.9074,0.6086,0.5425,0.0000,0.7558,0.0000,0.0000,0.0000,0.0000,0.0000,0.0000
P1Z,Z,104583,0.9078,0.6090,0.5277,0.0000,0.7769,0.0000,0.0000,0.0000,0.0000,0.0000,0.0000
P1Z,Z,104603,0.9059,0.6086,0.5181,0.0000,0.7534,0.0000,0.0000,0.0000,0.0000,0.0000,0.0000
P1Z,Z,104623,0.9085,0.6070,0.5100,0.0000,0.7182,0.0000,0.0000,0.0000,0.0000,0.0000,0.0000
P1Z,Z,104643,0.9082,0.6119,0.5162,0.0000,0.7534,0.0000,0.0000,0.0000,0.0000,0.0000,0.0000
P1Z,Z,104663,0.9059,0.6107,0.5191,0.0000,0.7788,0.0000,0.0000,0.0000,0.0000,0.0000,0.0000
P1Z,Z,104683,0.9059,0.6107,0.5244,0.0000,0.7971,0.0000,0.0000,0.0000,0.0000,0.0000,0.0000
P1Z,Z,104703,0.9059,0.6111,0.5201,0.0000,0.7070,0.0000,0.0000,0.0000,0.0000,0.0000,0.0000
P1Z,Z,104723,0.9063,0.6090,0.5100,0.0000,0.7680,0.0000,0.0000,0.0000,0.0000,0.0000,0.0000
P1Z,Z,104743,0.9082,0.6074,0.5263,0.0000,0.7764,0.0000,0.0000,0.0000,0.0000,0.0000,0.0000
P1Z,Z,104763,0.9082,0.6107,0.5162,0.0000,0.7426,0.0000,0.0000,0.0000,0.0000,0.0000,0.0000
P1Z,Z,104783,0.9048,0.6090,0.5201,0.0000,0.7070,0.0000,0.0000,0.0000,0.0000,0.0000,0.0000
P1Z,Z,104803,0.9055,0.6161,0.5148,0.0000,0.8149,0.0000,0.0000,0.0000,0.0000,0.0000,0.0000
P1Z,Z,104823,0.9055,0.6090,0.5196,0.0000,0.7337,0.0000,0.0000,0.0000,0.0000,0.0000,0.0000
P1Z,Z,104843,0.9067,0.6086,0.5177,0.0000,0.7304,0.0000,0.0000,0.0000,0.0000,0.0000,0.0000
P1Z,Z,104863,0.9029,0.6086,0.5244,0.0000,0.7642,0.0000,0.0000,0.0000,0.0000,0.0000,0.0000
P1Z,Z,104883,0.9052,0.6053,0.5196,0.0000,0.8215,0.0000,0.0000,0.0000,0.0000,0.0000,0.0000
P1Z,Z,104903,0.9055,0.6053,0.5277,0.0000,0.7999,0.0000,0.0000,0.0000,0.0000,0.0000,0.0000
P1Z,Z,104923,0.9074,0.6095,0.5301,0.0000,0.7943,0.0000,0.0000,0.0000,0.0000,0.0000,0.0000
P1Z,Z,104943,0.9007,0.6086,0.5478,0.0000,0.8337,0.0000,0.0000,0.0000,0.0000,0.0000,0.0000
P1Z,Z,104963,0.9022,0.6049,0.5172,0.0000,0.7417,0.0000,0.0000,0.0000,0.0000,0.0000,0.0000
P1Z,Z,104983,0.9040,0.6036,0.5186,0.0000,0.7196,0.0000,0.0000,0.0000,0.0000,0.0000,0.0000
P1Z,Z,105003,0.9070,0.6057,0.4928,0.0000,0.7469,0.0000,0.0000,0.0000,0.0000,0.0000,0.0000
P1Z,Z,105023,0.9059,0.6078,0.4995,0.0000,0.7487,0.0000,0.0000,0.0000,0.0000,0.0000,0.0000
P1Z,Z,105043,0.9037,0.6045,0.4856,0.0000,0.7943,0.0000,0.0000,0.0000,0.0000,0.0000,0.0000
P1Z,Z,105063,0.9044,0.6065,0.5100,0.0000,0.7966,0.0000,0.0000,0.0000,0.0000,0.0000,0.0000
P1Z,Z,105083,0.9033,0.6095,0.5129,0.0000,0.7581,0.0000,0.0000,0.0000,0.0000,0.0000,0.0000
P1Z,Z,105103,0.9033,0.6053,0.5105,0.0000,0.8018,0.0000,0.0000,0.0000,0.0000,0.0000,0.0000
P1Z,Z,105123,0.9040,0.6049,0.4961,0.0000,0.8168,0.0000,0.0000,0.0000,0.0000,0.0000,0.0000
P1Z,Z,105143,0.9037,0.6032,0.5311,0.0000,0.7844,0.0000,0.0000,0.0000,0.0000,0.0000,0.0000
P1Z,Z,105163,0.9048,0.6057,0.5071,0.0000,0.7342,0.0000,0.0000,0.0000,0.0000,0.0000,0.0000
P1Z,Z,105183,0.9037,0.6045,0.5081,0.0000,0.8534,0.0000,0.0000,0.0000,0.0000,0.0000,0.0000
P1Z,Z,105203,0.9067,0.6045,0.5158,0.0000,0.7168,0.0000,0.0000,0.0000,0.0000,0.0000,0.0000
P1Z,Z,105223,0.9048,0.6045,0.5081,0.0000,0.7511,0.0000,0.0000,0.0000,0.0000,0.0000,0.0000
P1Z,Z,105243,0.9026,0.6024,0.5306,0.0000,0.7243,0.0000,0.0000,0.0000,0.0000,0.0000,0.0000
P1Z,Z,105263,0.9018,0.6057,0.5100,0.0000,0.7985,0.0000,0.0000,0.0000,0.0000,0.0000,0.0000
P1Z,Z,105283,0.9014,0.6036,0.4770,0.0000,0.7473,0.0000,0.0000,0.0000,0.0000,0.0000,0.0000
P1Z,Z,105303,0.9033,0.6061,0.5100,0.0000,0.7074,0.0000,0.0000,0.0000,0.0000,0.0000,0.0000
P1Z,Z,105323,0.9029,0.6049,0.4957,0.0000,0.7952,0.0000,0.0000,0.0000,0.0000,0.0000,0.0000
P1Z,Z,105343,0.9014,0.6053,0.5325,0.0000,0.7314,0.0000,0.0000,0.0000,0.0000,0.0000,0.0000
P1Z,Z,105363,0.9033,0.6016,0.5076,0.0000,0.8262,0.0000,0.0000,0.0000,0.0000,0.0000,0.0000
P1Z,Z,105383,0.9018,0.6049,0.5052,0.0000,0.7947,0.0000,0.0000,0.0000,0.0000,0.0000,0.0000
P1Z,Z,105403,0.9029,0.6036,0.4933,0.0000,0.7417,0.0000,0.0000,0.0000,0.0000,0.0000,0.0000
P1Z,Z,105423,0.9029,0.6099,0.5067,0.0000,0.7727,0.0000,0.0000,0.0000,0.0000,0.0000,0.0000
P1Z,Z,105443,0.9029,0.6036,0.5071,0.0000,0.7966,0.0000,0.0000,0.0000,0.0000,0.0000,0.0000
P1Z,Z,105463,0.9003,0.6011,0.5086,0.0000,0.7487,0.0000,0.0000,0.0000,0.0000,0.0000,0.0000
P1Z,Z,105483,0.9026,0.6061,0.5110,0.0000,0.7839,0.0000,0.0000,0.0000,0.0000,0.0000,0.0000
P1Z,Z,105503,0.9040,0.6036,0.4871,0.0000,0.7882,0.0000,0.0000,0.0000,0.0000,0.0000,0.0000
P1Z,Z,105523,0.9022,0.6061,0.5024,0.0000,0.7478,0.0000,0.0000,0.0000,0.0000,0.0000,0.0000
P1Z,Z,105543,0.9018,0.5962,0.5091,0.0000,0.7807,0.0000,0.0000,0.0000,0.0000,0.0000,0.0000
P1Z,Z,105563,0.9018,0.6032,0.5057,0.0000,0.7586,0.0000,0.0000,0.0000,0.0000,0.0000,0.0000
P1Z,Z,105583,0.9011,0.6045,0.5076,0.0000,0.7933,0.0000,0.0000,0.0000,0.0000,0.0000,0.0000
P1Z,Z,105603,0.9011,0.6036,0.5024,0.0000,0.7929,0.0000,0.0000,0.0000,0.0000,0.0000,0.0000
P1Z,Z,105623,0.9003,0.6061,0.5095,0.0000,0.7849,0.0000,0.0000,0.0000,0.0000,0.0000,0.0000
P1Z,Z,105643,0.9022,0.5953,0.5043,0.0000,0.7910,0.0000,0.0000,0.0000,0.0000,0.0000,0.0000
P1Z,Z,105663,0.8999,0.6016,0.5148,0.0000,0.7403,0.0000,0.0000,0.0000,0.0000,0.0000,0.0000
P1Z,Z,105683,0.9014,0.6086,0.5248,0.0000,0.7154,0.0000,0.0000,0.0000,0.0000,0.0000,0.0000
P1Z,Z,105703,0.9003,0.5974,0.5043,0.0000,0.7384,0.0000,0.0000,0.0000,0.0000,0.0000,0.0000
P1Z,Z,105723,0.9007,0.6016,0.5000,0.0000,0.7314,0.0000,0.0000,0.0000,0.0000,0.0000,0.0000
P1Z,Z,105743,0.8977,0.6020,0.5095,0.0000,0.7933,0.0000,0.0000,0.0000,0.0000,0.0000,0.0000
P1Z,Z,105763,0.8996,0.6041,0.5081,0.0000,0.7422,0.0000,0.0000,0.0000,0.0000,0.0000,0.0000
P1Z,Z,105783,0.9011,0.6007,0.5081,0.0000,0.7314,0.0000,0.0000,0.0000,0.0000,0.0000,0.0000
P1Z,Z,105803,0.9014,0.6049,0.5225,0.0000,0.8295,0.0000,0.0000,0.0000,0.0000,0.0000,0.0000
P1Z,Z,105823,0.9011,0.6028,0.5062,0.0000,0.8375,0.0000,0.0000,0.0000,0.0000,0.0000,0.0000
P1Z,Z,105843,0.9014,0.6036,0.5086,0.0000,0.7586,0.0000,0.0000,0.0000,0.0000,0.0000,0.0000
P1Z,Z,105863,0.9014,0.6057,0.5052,0.0000,0.7473,0.0000,0.0000,0.0000,0.0000,0.0000,0.0000
P1Z,Z,105883,0.8999,0.6028,0.5153,0.0000,0.7393,0.0000,0.0000,0.0000,0.0000,0.0000,0.0000
P1Z,Z,105903,0.8999,0.6061,0.4899,0.0000,0.7454,0.0000,0.0000,0.0000,0.0000,0.0000,0.0000
P1Z,Z,105923,0.8999,0.6028,0.5119,0.0000,0.7426,0.0000,0.0000,0.0000,0.0000,0.0000,0.0000
P1Z,Z,105943,0.9018,0.6020,0.5100,0.0000,0.7952,0.0000,0.0000,0.0000,0.0000,0.0000,0.0000
P1Z,Z,105963,0.9014,0.6070,0.5229,0.0000,0.8098,0.0000,0.0000,0.0000,0.0000,0.0000,0.0000
P1Z,Z,105983,0.9014,0.6136,0.5368,0.0000,0.8046,0.0000,0.0000,0.0000,0.0000,0.0000,0.0000
P1Z,Z,106003,0.9003,0.6061,0.5153,0.0000,0.7558,0.0000,0.0000,0.0000,0.0000,0.0000,0.0000
P1Z,Z,106023,0.9026,0.6041,0.5315,0.0000,0.7267,0.0000,0.0000,0.0000,0.0000,0.0000,0.0000
P1Z,Z,106043,0.8981,0.6053,0.5048,0.0000,0.7060,2.0651,-8.4077,-0.0832,1.3951,-0.9201,-0.1374
P1Z,Z,106063,0.9055,0.6061,0.5196,0.0000,0.8281,2.0495,-8.5436,-0.1239,1.3418,-0.8131,-0.0861
P1Z,Z,106083,0.9037,0.6041,0.5287,0.0000,0.7811,1.8238,-8.3712,-0.1778,1.3444,-0.9156,-0.1119
P1Z,Z,106103,0.9014,0.6078,0.5162,0.0000,0.7642,1.2963,-8.3904,-0.5670,1.4063,-0.9642,-0.1130
P1Z,Z,106123,0.9029,0.6053,0.5148,0.0000,0.7440,0.9538,-8.5766,-1.4508,1.3564,-0.9113,-0.0116
P1Z,Z,106143,0.9029,0.6078,0.5134,0.0000,0.7445,0.9221,-8.4412,-2.1867,1.1738,-0.7175,0.2041
P1Z,Z,106163,0.9037,0.6065,0.5292,0.0000,0.8126,1.6963,-8.2778,-2.6698,0.9196,-0.5004,0.3960
P1Z,Z,106183,0.9029,0.6036,0.5287,0.0000,0.7478,2.6022,-7.7982,-2.8704,0.6595,-0.4081,0.4695
P1Z,Z,106203,0.9026,0.6057,0.5162,0.0000,0.7994,3.4674,-7.7898,-3.0207,0.4535,-0.3568,0.4050
P1Z,Z,106223,0.9029,0.6045,0.5129,0.0000,0.7619,4.0278,-7.8646,-2.9507,0.2272,-0.3436,0.2674
P1Z,Z,106243,0.9048,0.6070,0.5067,0.0000,0.7530,3.9985,-7.6880,-2.6471,0.0785,-0.2725,0.0771
P1Z,Z,106263,0.9003,0.6074,0.5215,0.0000,0.7952,3.8458,-8.0766,-2.5321,-0.0187,-0.1374,-0.0370
P1Z,Z,106283,0.9018,0.6070,0.5335,0.0000,0.8060,3.7620,-8.3712,-2.3801,-0.1592,0.0044,-0.1051
P1Z,Z,106303,0.9011,0.6078,0.5172,0.0000,0.7952,3.1836,-8.5233,-2.3130,-0.2563,0.0997,-0.1447
P1Z,Z,106323,0.9011,0.6095,0.5234,0.0000,0.8661,2.8489,-8.6574,-2.4693,-0.3106,0.2990,-0.1136
P1Z,Z,106343,0.9040,0.6065,0.5186,0.0000,0.7915,2.8866,-8.8951,-2.5423,-0.4069,0.5032,-0.0610
P1Z,Z,106363,0.9037,0.6078,0.4966,0.0000,0.7933,2.8513,-9.0292,-2.4064,-0.4927,0.6550,-0.0310
P1Z,Z,106383,0.9014,0.6053,0.5181,0.0000,0.7145,2.8920,-9.2274,-2.3914,-0.5614,0.7971,-0.0281
P1Z,Z,106403,0.9014,0.6065,0.5177,0.0000,0.8168,3.0932,-9.2526,-2.6525,-0.6191,0.9270,-0.0043
P1Z,Z,106423,0.9022,0.6065,0.5177,0.0000,0.7140,3.2602,-9.2508,-2.6698,-0.7413,1.1129,0.0103
P1Z,Z,106443,0.8988,0.6074,0.5205,0.0000,0.8257,3.4129,-9.1538,-2.4232,-0.8270,1.2885,0.0151
P1Z,Z,106463,0.9048,0.6074,0.5191,0.0000,0.7361,3.5560,-9.1214,-2.2441,-0.9228,1.4985,0.0220
P1Z,Z,106483,0.9029,0.6082,0.5177,0.0000,0.7318,3.9218,-9.1208,-1.9046,-1.0373,1.6815,0.0309
P1Z,Z,106503,0.9014,0.6070,0.5043,0.0000,0.8018,3.8494,-8.8334,-1.2257,-1.0948,1.6875,-0.0548
P1Z,Z,106523,0.9022,0.6086,0.5119,0.0000,0.7149,3.3237,-8.6987,-0.7173,-1.1021,1.7527,-0.1460
P1Z,Z,106543,0.9026,0.6086,0.5196,0.0000,0.8299,2.8028,-8.9592,-0.3539,-1.1262,1.8453,-0.1639
P1Z,Z,106563,0.9044,0.6090,0.5272,0.0000,0.8065,2.3178,-9.0640,0.2629,-1.1922,1.8571,-0.1891
P1Z,Z,106583,0.9029,0.6082,0.5134,0.0000,0.8102,1.8759,-9.0999,0.9909,-1.2593,1.9057,-0.1324
P1Z,Z,106603,0.9026,0.6078,0.5258,0.0000,0.7553,1.9208,-9.1819,1.9783,-1.3312,1.8572,-0.1063
P1Z,Z,106623,0.9029,0.6103,0.5191,0.0000,0.7243,1.6717,-9.1262,3.4213,-1.3059,1.5323,-0.2438
P1Z,Z,106643,0.9003,0.6086,0.5196,0.0000,0.7980,1.0185,-9.1723,4.7368,-1.0892,1.0844,-0.4033
P1Z,Z,106663,0.9007,0.6095,0.5205,0.0000,0.8107,0.1617,-9.6525,5.5828,-0.8419,0.7529,-0.4642
P1Z,Z,106683,0.8996,0.5986,0.5105,0.0000,0.7835,-0.5646,-9.8310,6.2588,-0.6448,0.4943,-0.4108
P1Z,Z,106703,0.9026,0.6090,0.5134,0.0000,0.7196,-1.1418,-9.8621,6.5139,-0.4349,0.3226,-0.2382
P1Z,Z,106723,0.9014,0.6032,0.5330,0.0000,0.7525,-1.2945,-9.6897,6.3288,-0.2455,0.2409,-0.0123
P1Z,Z,106743,0.9026,0.6095,0.5253,0.0000,0.7858,-0.9778,-9.2993,5.8858,-0.1222,0.1372,0.1831
P1Z,Z,106763,0.8955,0.6095,0.5201,0.0000,0.7891,-0.5443,-8.6873,5.3595,-0.0294,-0.0742,0.2795
P1Z,Z,106783,0.9022,0.6086,0.4995,0.0000,0.7863,-0.1305,-8.4191,4.7164,0.0512,-0.3440,0.3293
P1Z,Z,106803,0.8999,0.6078,0.5119,0.0000,0.7487,0.0784,-8.3886,4.1266,0.0481,-0.6085,0.4012
P1Z,Z,106823,0.8999,0.6090,0.5263,0.0000,0.7412,0.4760,-8.2035,3.7500,0.0036,-0.6687,0.5347
P1Z,Z,106843,0.9003,0.6086,0.5162,0.0000,0.7318,1.3933,-7.9970,3.6273,-0.0153,-0.7159,0.6566
P1Z,Z,106863,0.9026,0.6082,0.5114,0.0000,0.7445,2.2142,-7.8664,3.6183,-0.0289,-0.8286,0.6706
P1Z,Z,106883,0.9007,0.6065,0.5124,0.0000,0.7436,2.2872,-7.6766,3.4913,0.0152,-1.0054,0.6235
P1Z,Z,106903,0.9003,0.6078,0.5124,0.0000,0.8309,2.5190,-7.9299,3.1626,0.0878,-1.1183,0.5729
P1Z,Z,106923,0.8996,0.6061,0.5100,0.0000,0.7900,2.4980,-8.0221,2.7064,0.0855,-1.3037,0.5321
P1Z,Z,106943,0.9022,0.6078,0.5239,0.0000,0.7811,2.0657,-8.0395,2.3717,0.0088,-1.4444,0.5321
P1Z,Z,106963,0.8992,0.6078,0.5358,0.0000,0.7839,1.7723,-8.0377,2.1771,-0.0870,-1.4318,0.6539
P1Z,Z,106983,0.8962,0.6007,0.5043,0.0000,0.7891,2.0627,-8.3263,2.3908,-0.2054,-1.4138,0.8206
P1Z,Z,107003,0.8977,0.6070,0.5091,0.0000,0.7398,1.8292,-8.2293,2.7728,-0.2515,-1.5390,0.9469
P1Z,Z,107023,0.9003,0.6078,0.5091,0.0000,0.7572,1.7184,-8.2580,2.8291,-0.2000,-1.6491,1.1038
P1Z,Z,107043,0.9003,0.6074,0.5134,0.0000,0.7853,1.7945,-8.2467,2.4477,-0.2112,-1.7409,1.3113
P1Z,Z,107063,0.8999,0.6082,0.5191,0.0000,0.7351,2.2393,-8.3209,1.9501,-0.3074,-1.6618,1.5563
P1Z,Z,107083,0.9011,0.6074,0.5258,0.0000,0.8257,3.2111,-8.3550,1.6208,-0.4167,-1.4914,1.7488
P1Z,Z,107103,0.8999,0.6057,0.5081,0.0000,0.6783,4.3015,-8.2898,1.6316,-0.4699,-1.4023,1.7697
P1Z,Z,107123,0.8999,0.6057,0.4885,0.0000,0.7346,5.1158,-7.8784,1.9980,-0.3796,-1.4565,1.5924
P1Z,Z,107143,0.8996,0.6036,0.5086,0.0000,0.7107,5.9396,-8.7095,1.8945,-0.2657,-1.5079,1.4141
P1Z,Z,107163,0.9003,0.6065,0.4914,0.0000,0.7717,6.2929,-9.3292,1.7927,-0.3936,-1.4091,1.3376
P1Z,Z,107183,0.8999,0.6024,0.5158,0.0000,0.8182,6.8575,-9.4310,1.9507,-0.5187,-1.0824,1.3146
P1Z,Z,107203,0.8996,0.5986,0.4856,0.0000,0.7520,7.6617,-9.5573,1.9849,-0.4531,-0.8033,1.1602
P1Z,Z,107223,0.8985,0.6024,0.4976,0.0000,0.8238,8.0191,-9.8795,1.8825,-0.3631,-0.6892,0.8833
P1Z,Z,107243,0.8992,0.6016,0.4880,0.0000,0.8238,7.6940,-10.0447,1.7292,-0.3143,-0.5729,0.6077
P1Z,Z,107263,0.8999,0.6119,0.5105,0.0000,0.7506,7.2862,-10.0573,1.5143,-0.3143,-0.3154,0.4418
P1Z,Z,107283,0.8966,0.6053,0.5062,0.0000,0.8004,7.2755,-9.6489,1.4789,-0.3200,-0.0254,0.2666
P1Z,Z,107303,0.8981,0.6016,0.4914,0.0000,0.7943,7.2174,-9.2939,1.5322,-0.3076,0.2437,0.0863
P1Z,Z,107323,0.9018,0.5986,0.5033,0.0000,0.7501,7.2078,-8.6855,1.5190,-0.3381,0.5079,-0.0789
P1Z,Z,107343,0.8996,0.6032,0.5201,0.0000,0.7501,7.0749,-8.0598,1.3855,-0.3928,0.7017,-0.2589
P1Z,Z,107363,0.8999,0.6049,0.4837,0.0000,0.7070,7.0623,-7.8551,1.2694,-0.5052,0.8495,-0.4519
P1Z,Z,107383,0.9007,0.6045,0.5062,0.0000,0.7619,6.7599,-7.5892,1.5747,-0.6797,0.9461,-0.6478
P1Z,Z,107403,0.8981,0.6020,0.5191,0.0000,0.7131,6.3474,-7.5521,1.9681,-0.7635,1.0769,-0.7871
P1Z,Z,107423,0.9007,0.6007,0.5048,0.0000,0.7534,6.4899,-7.5808,2.4585,-0.8474,1.2733,-0.8803
P1Z,Z,107443,0.8996,0.6016,0.4957,0.0000,0.7872,6.8498,-7.7227,3.0968,-0.9121,1.3543,-1.0288
P1Z,Z,107463,0.8985,0.6016,0.4847,0.0000,0.7990,6.5151,-7.7461,3.6704,-0.9257,1.3867,-1.2331
P1Z,Z,107483,0.8966,0.6053,0.4995,0.0000,0.7454,6.1073,-7.5557,4.1099,-0.9102,1.4838,-1.4205
P1Z,Z,107503,0.8977,0.6020,0.4885,0.0000,0.7821,5.7924,-7.3838,4.3404,-0.8707,1.6230,-1.5270
P1Z,Z,107523,0.8981,0.6036,0.4990,0.0000,0.7929,5.5493,-7.0881,4.4230,-0.8903,1.6966,-1.5509
P1Z,Z,107543,0.8977,0.6057,0.5057,0.0000,0.7853,4.7475,-7.1413,4.6200,-0.9289,1.7397,-1.4735
P1Z,Z,107563,0.8973,0.6036,0.5067,0.0000,0.8356,4.2745,-6.8713,5.1846,-0.9974,1.7758,-1.4514
P1Z,Z,107583,0.8958,0.5995,0.5138,0.0000,0.7454,3.8482,-6.8953,6.0690,-0.9314,1.6216,-1.4701
P1Z,Z,107603,0.8988,0.6049,0.4880,0.0000,0.7379,2.9980,-7.0964,7.0060,-0.7813,1.3792,-1.4949
P1Z,Z,107623,0.8973,0.6036,0.5004,0.0000,0.8013,2.1244,-7.4784,7.5431,-0.5733,1.1198,-1.3880
P1Z,Z,107643,0.8943,0.6020,0.4947,0.0000,0.7370,1.3592,-7.7066,7.8617,-0.3732,0.9386,-1.2080
P1Z,Z,107663,0.8958,0.6045,0.5024,0.0000,0.7210,0.9861,-7.9377,8.2413,-0.1944,0.7714,-0.9838
P1Z,Z,107683,0.8962,0.5999,0.5071,0.0000,0.7445,0.7724,-7.8874,8.8328,0.0354,0.5247,-0.7915
P1Z,Z,107703,0.8940,0.6041,0.5110,0.0000,0.7750,0.5485,-8.0688,8.9975,0.3207,0.1713,-0.6119
P1Z,Z,107723,0.8962,0.6024,0.4947,0.0000,0.8163,0.1958,-8.2526,8.9292,0.5697,-0.1375,-0.4105
P1Z,Z,107743,0.8966,0.5999,0.4808,0.0000,0.8154,0.4179,-8.5041,8.7185,0.7777,-0.3263,-0.1692
P1Z,Z,107763,0.8951,0.6024,0.5196,0.0000,0.6985,1.0993,-8.8358,8.1461,0.9766,-0.4871,0.0274
P1Z,Z,107783,0.8936,0.6065,0.4981,0.0000,0.7417,1.9154,-9.1867,7.2258,1.1353,-0.6844,0.0847
P1Z,Z,107803,0.8962,0.6036,0.5043,0.0000,0.7886,2.4765,-9.4795,6.4360,1.2356,-0.9170,0.0425
P1Z,Z,107823,0.8958,0.6007,0.4947,0.0000,0.8154,2.8674,-9.7286,5.7247,1.3454,-1.1397,-0.0794
P1Z,Z,107843,0.8958,0.6020,0.4981,0.0000,0.7980,3.0662,-10.0160,4.8140,1.4587,-1.2958,-0.1784
P1Z,Z,107863,0.8940,0.6057,0.5191,0.0000,0.7976,3.2830,-9.8381,4.0763,1.5314,-1.3916,-0.2522
P1Z,Z,107883,0.8958,0.6028,0.5024,0.0000,0.7220,3.3530,-9.6471,3.5662,1.6122,-1.3586,-0.2690
P1Z,Z,107903,0.8951,0.6028,0.5033,0.0000,0.7520,3.6835,-9.4855,2.9543,1.7046,-1.2638,-0.3152
P1Z,Z,107923,0.8999,0.6036,0.5124,0.0000,0.8140,3.7512,-9.1424,2.3268,1.7822,-1.2461,-0.3925
P1Z,Z,107943,0.8947,0.5999,0.5004,0.0000,0.7511,3.6063,-8.9795,1.7100,1.8852,-1.2768,-0.5323
P1Z,Z,107963,0.8962,0.6057,0.5306,0.0000,0.7994,2.9525,-8.9310,1.1957,1.9356,-1.3095,-0.5969
P1Z,Z,107983,0.8955,0.6074,0.4981,0.0000,0.7337,2.3393,-8.5197,0.7544,1.9275,-1.2136,-0.5164
P1Z,Z,108003,0.8940,0.6057,0.5028,0.0000,0.7239,2.1980,-8.2401,0.2341,1.9268,-1.0379,-0.3684
P1Z,Z,108023,0.8966,0.6011,0.5014,0.0000,0.7473,2.4178,-8.3095,-0.3245,1.8815,-0.9033,-0.2827
P1Z,Z,108043,0.8947,0.6041,0.5052,0.0000,0.7985,2.4250,-8.3047,-0.8532,1.7917,-0.8731,-0.2366
P1Z,Z,108063,0.9007,0.6049,0.5167,0.0000,0.7187,2.1142,-8.1245,-1.4496,1.6514,-0.8609,-0.1873
P1Z,Z,108083,0.8955,0.6041,0.4933,0.0000,0.8088,1.9178,-8.0658,-2.0004,1.4746,-0.7550,-0.0850
P1Z,Z,108103,0.8977,0.6061,0.5191,0.0000,0.7121,2.0130,-7.9179,-2.1729,1.2291,-0.6662,0.0246
P1Z,Z,108123,0.8977,0.6045,0.4981,0.0000,0.7915,1.8837,-7.5299,-2.2729,1.0581,-0.6053,0.1164
P1Z,Z,108143,0.8929,0.6045,0.5148,0.0000,0.7835,2.0633,-7.3497,-2.4741,0.9613,-0.4174,0.1839
P1Z,Z,108163,0.8981,0.6078,0.5292,0.0000,0.6741,2.5992,-7.5006,-2.7866,0.8507,-0.3096,0.2118
P1Z,Z,108183,0.8981,0.6065,0.5186,0.0000,0.7933,2.6704,-7.6108,-3.0884,0.6167,-0.2353,0.2080
P1Z,Z,108203,0.8996,0.6078,0.5315,0.0000,0.7530,2.7016,-7.5886,-3.3105,0.3639,-0.1107,0.2320
P1Z,Z,108223,0.8966,0.6065,0.5081,0.0000,0.7863,2.9980,-7.4934,-3.6506,0.0891,0.0577,0.2646
P1Z,Z,108243,0.8955,0.6065,0.5225,0.0000,0.7976,3.2303,-7.5533,-3.7434,-0.1940,0.1863,0.2426
P1Z,Z,108263,0.8955,0.6074,0.5177,0.0000,0.7346,3.4189,-7.6736,-3.4973,-0.4189,0.3399,0.1359
P1Z,Z,108283,0.8996,0.6078,0.5153,0.0000,0.7492,3.5327,-8.0197,-3.2512,-0.5910,0.4490,0.0274
P1Z,Z,108303,0.8988,0.6053,0.5057,0.0000,0.7013,3.2488,-8.3969,-3.0297,-0.7204,0.5421,-0.0346
P1Z,Z,108323,0.8947,0.6061,0.5153,0.0000,0.7332,3.2632,-8.9514,-2.7794,-0.8029,0.7338,-0.0413
P1Z,Z,108343,0.8936,0.6074,0.5292,0.0000,0.7459,3.3446,-9.2304,-2.4902,-0.8960,0.9044,-0.0273
P1Z,Z,108363,0.8985,0.6061,0.5105,0.0000,0.6830,3.2782,-9.2550,-2.3753,-0.9781,1.1053,0.0056
P1Z,Z,108383,0.8985,0.6090,0.5201,0.0000,0.8281,3.3979,-9.2448,-2.1801,-1.0511,1.3340,0.0313
P1Z,Z,108403,0.8962,0.6053,0.5210,0.0000,0.7544,3.6548,-9.2999,-1.6927,-1.1594,1.4428,-0.0199
P1Z,Z,108423,0.8996,0.6082,0.5091,0.0000,0.7530,3.4069,-9.0137,-1.1448,-1.2140,1.4639,-0.0917
P1Z,Z,108443,0.8966,0.6082,0.5186,0.0000,0.7821,3.1572,-9.2178,-0.6892,-1.2413,1.5543,-0.1567
P1Z,Z,108463,0.8985,0.6086,0.5215,0.0000,0.7346,3.0129,-9.4831,-0.0210,-1.2859,1.6010,-0.2268
P1Z,Z,108483,0.8977,0.6099,0.5440,0.0000,0.7173,2.5519,-9.2544,0.5263,-1.3158,1.6642,-0.2253
P1Z,Z,108503,0.8992,0.6082,0.5148,0.0000,0.8055,2.4669,-9.1586,1.2825,-1.3410,1.7477,-0.1889
P1Z,Z,108523,0.8996,0.6111,0.5368,0.0000,0.8281,2.3142,-9.2112,2.3836,-1.3270,1.6425,-0.2029
P1Z,Z,108543,0.8981,0.6074,0.5201,0.0000,0.7210,1.9232,-9.1274,3.4614,-1.2248,1.4346,-0.2879
P1Z,Z,108563,0.8962,0.6103,0.5186,0.0000,0.7980,1.3765,-9.1490,4.1590,-1.0135,1.1898,-0.3551
P1Z,Z,108583,0.8970,0.6115,0.5162,0.0000,0.6929,0.7532,-9.4472,4.6805,-0.8291,1.0074,-0.3782
P1Z,Z,108603,0.8973,0.6099,0.5124,0.0000,0.7422,0.2263,-9.4729,5.3008,-0.6872,0.7855,-0.3463
P1Z,Z,108623,0.8940,0.6136,0.5311,0.0000,0.8163,-0.3353,-9.3795,5.6409,-0.5292,0.6042,-0.2477
P1Z,Z,108643,0.8981,0.6128,0.5124,0.0000,0.8281,-0.5479,-9.2496,5.7750,-0.3905,0.4707,-0.1013
P1Z,Z,108663,0.8962,0.6128,0.5210,0.0000,0.8004,-0.6071,-9.0681,5.8534,-0.2529,0.2301,-0.0160
P1Z,Z,108683,0.8947,0.6099,0.5129,0.0000,0.7558,-0.8490,-8.7454,5.7600,-0.1175,-0.0690,0.0550
P1Z,Z,108703,0.8962,0.6107,0.5134,0.0000,0.7783,-0.8856,-8.6796,5.3589,-0.0075,-0.2763,0.1688
P1Z,Z,108723,0.8981,0.6103,0.5048,0.0000,0.7530,-0.7113,-8.5131,4.9014,0.0781,-0.4398,0.3248
P1Z,Z,108743,0.8970,0.6103,0.5162,0.0000,0.7431,-0.1215,-8.4993,4.5392,0.1083,-0.5969,0.4794
P1Z,Z,108763,0.8955,0.6095,0.5124,0.0000,0.7943,0.4209,-8.1024,4.3553,0.0652,-0.7574,0.6131
P1Z,Z,108783,0.8955,0.6086,0.5081,0.0000,0.7239,1.0676,-7.6617,4.2224,0.0858,-0.8408,0.7304
P1Z,Z,108803,0.8977,0.6124,0.5143,0.0000,0.8074,1.7831,-7.4976,3.8614,0.1256,-0.9751,0.7949
P1Z,Z,108823,0.8962,0.6090,0.5148,0.0000,0.8098,2.0190,-7.3653,3.5638,0.1314,-1.1655,0.8051
P1Z,Z,108843,0.8947,0.6115,0.5124,0.0000,0.7830,2.1298,-7.2815,3.2566,0.1491,-1.2673,0.8264
P1Z,Z,108863,0.8988,0.6099,0.5215,0.0000,0.7900,2.2843,-7.5090,2.8046,0.1107,-1.3956,0.8913
P1Z,Z,108883,0.8917,0.6070,0.5105,0.0000,0.8032,2.4286,-7.4222,2.5603,0.0648,-1.4661,0.9581
P1Z,Z,108903,0.8940,0.6074,0.5091,0.0000,0.7271,2.5345,-7.5389,2.4064,0.0047,-1.5435,1.0515
P1Z,Z,108923,0.8940,0.6070,0.5052,0.0000,0.7755,2.6944,-7.7617,2.3232,-0.0759,-1.6017,1.1615
P1Z,Z,108943,0.8932,0.6078,0.5052,0.0000,0.7426,3.0531,-7.7844,2.3747,-0.1470,-1.6515,1.2598
P1Z,Z,108963,0.8936,0.6103,0.5091,0.0000,0.8309,3.0896,-7.7299,2.6172,-0.1495,-1.6980,1.3563
P1Z,Z,108983,0.8955,0.6086,0.5033,0.0000,0.7318,3.4177,-7.9167,2.8112,-0.1172,-1.7040,1.4552
P1Z,Z,109003,0.8936,0.6053,0.5229,0.0000,0.8084,3.8572,-8.3359,2.8794,-0.0703,-1.7734,1.5448
P1Z,Z,109023,0.8940,0.6049,0.5038,0.0000,0.7093,4.0757,-8.7921,2.7064,-0.0163,-1.8959,1.5914
P1Z,Z,109043,0.8921,0.6057,0.4981,0.0000,0.7929,4.4242,-9.1196,2.4172,-0.0521,-1.9167,1.6084
P1Z,Z,109063,0.8940,0.6041,0.5153,0.0000,0.8295,4.9583,-9.0795,2.4274,-0.1568,-1.8989,1.6351
P1Z,Z,109083,0.8914,0.6049,0.5177,0.0000,0.7929,5.5421,-8.8113,2.5609,-0.2510,-1.7733,1.6685
P1Z,Z,109103,0.8929,0.6045,0.5048,0.0000,0.7562,6.6701,-9.0933,2.5453,-0.2595,-1.5268,1.6249
P1Z,Z,109123,0.8977,0.6074,0.5043,0.0000,0.8177,7.7018,-9.3184,2.4136,-0.2447,-1.3923,1.4372
P1Z,Z,109143,0.8921,0.6074,0.5004,0.0000,0.7309,8.3820,-9.6765,2.1429,-0.1857,-1.2323,1.1767
P1Z,Z,109163,0.8947,0.6065,0.5244,0.0000,0.7577,8.8191,-9.5687,1.9112,-0.1589,-1.0099,0.8911
P1Z,Z,109183,0.8932,0.6078,0.4966,0.0000,0.6746,8.9484,-9.5454,1.5693,-0.1170,-0.7249,0.6087
P1Z,Z,109203,0.8925,0.6036,0.5062,0.0000,0.8032,8.9514,-9.5519,1.2640,-0.1214,-0.4068,0.3090
P1Z,Z,109223,0.8940,0.6082,0.5172,0.0000,0.7220,8.5484,-9.2705,1.2364,-0.1712,-0.1747,-0.0021
P1Z,Z,109243,0.8940,0.6061,0.5014,0.0000,0.7220,7.9862,-8.9532,1.4238,-0.1832,0.0266,-0.2892
P1Z,Z,109263,0.8902,0.6061,0.4957,0.0000,0.7830,7.3545,-8.6233,1.6526,-0.1468,0.1772,-0.5552
P1Z,Z,109283,0.8917,0.6049,0.5244,0.0000,0.7506,6.6246,-8.2251,1.6663,-0.1536,0.3289,-0.7340
P1Z,Z,109303,0.8947,0.6074,0.5095,0.0000,0.7900,6.2965,-7.9419,1.5089,-0.2050,0.5581,-0.8102
P1Z,Z,109323,0.8936,0.6053,0.4976,0.0000,0.7515,6.1145,-7.5437,1.3897,-0.3505,0.8536,-0.8603
P1Z,Z,109343,0.8940,0.6074,0.5038,0.0000,0.8206,6.3270,-7.2934,1.4041,-0.5124,1.1036,-0.9288
P1Z,Z,109363,0.8947,0.6095,0.5081,0.0000,0.7919,6.2827,-7.0473,1.6741,-0.6933,1.2413,-1.0541
P1Z,Z,109383,0.8936,0.6090,0.5071,0.0000,0.7356,6.0372,-6.8677,2.0262,-0.8787,1.3383,-1.1546
P1Z,Z,109403,0.8925,0.6078,0.5272,0.0000,0.7816,5.6427,-6.6935,2.3723,-1.0328,1.4533,-1.2477
P1Z,Z,109423,0.8932,0.6086,0.5110,0.0000,0.7915,5.3642,-6.7983,2.7633,-1.1924,1.6445,-1.2733
P1Z,Z,109443,0.8902,0.6090,0.5067,0.0000,0.7431,5.3337,-6.8072,3.3752,-1.3909,1.7620,-1.2927
P1Z,Z,109463,0.8940,0.6070,0.5095,0.0000,0.7041,4.9517,-6.5749,4.1254,-1.4921,1.7331,-1.3322
P1Z,Z,109483,0.8906,0.6049,0.5129,0.0000,0.8107,4.3464,-6.4019,4.6583,-1.4833,1.7309,-1.3607
P1Z,Z,109503,0.8940,0.6074,0.5033,0.0000,0.7370,3.9793,-6.6168,5.1379,-1.4785,1.7630,-1.3226
P1Z,Z,109523,0.8914,0.6032,0.4952,0.0000,0.7342,3.7087,-6.7162,5.9289,-1.5047,1.6723,-1.3041
P1Z,Z,109543,0.8917,0.6095,0.5033,0.0000,0.6760,3.1237,-6.6486,6.9911,-1.4252,1.4721,-1.2782
P1Z,Z,109563,0.8929,0.6078,0.5028,0.0000,0.7961,2.4537,-7.0509,8.0155,-1.2426,1.2295,-1.1891
P1Z,Z,109583,0.8925,0.6045,0.5052,0.0000,0.7501,1.8969,-7.1635,8.9191,-0.9730,1.0030,-1.1034
P1Z,Z,109603,0.8925,0.6095,0.4885,0.0000,0.6929,1.2789,-7.3809,9.3310,-0.6396,0.7985,-0.9150
P1Z,Z,109623,0.8917,0.6111,0.5019,0.0000,0.7473,1.0897,-7.6030,9.4909,-0.3596,0.6820,-0.6820
P1Z,Z,109643,0.8921,0.6086,0.4942,0.0000,0.7863,1.0418,-7.4641,9.3795,-0.1003,0.4734,-0.4557
P1Z,Z,109663,0.8917,0.6086,0.4976,0.0000,0.7436,0.9885,-7.5180,8.9849,0.1460,0.2866,-0.2198
P1Z,Z,109683,0.8929,0.6124,0.5014,0.0000,0.8252,1.4077,-7.3701,8.5778,0.2948,0.1268,-0.0360
P1Z,Z,109703,0.8936,0.6090,0.5057,0.0000,0.8234,1.8699,-7.3036,8.1616,0.4298,-0.0843,0.0572
P1Z,Z,109723,0.8917,0.6053,0.4990,0.0000,0.7107,2.2657,-7.3880,7.7958,0.5345,-0.2884,0.1035
P1Z,Z,109743,0.8917,0.6078,0.5024,0.0000,0.8107,2.6818,-7.7605,7.5317,0.6290,-0.5000,0.1148
P1Z,Z,109763,0.8917,0.6041,0.5014,0.0000,0.8243,2.9117,-8.4862,7.1102,0.7600,-0.6680,0.1034
P1Z,Z,109783,0.8921,0.6061,0.5033,0.0000,0.7487,3.2099,-9.4669,6.6534,0.8489,-0.8203,0.0416
P1Z,Z,109803,0.8914,0.6086,0.4937,0.0000,0.7985,3.4668,-10.0657,6.2522,0.9165,-0.9252,-0.0741
P1Z,Z,109823,0.8929,0.6090,0.4890,0.0000,0.7487,3.5440,-10.2980,5.8732,1.0523,-1.0000,-0.2064
P1Z,Z,109843,0.8880,0.6095,0.5095,0.0000,0.7530,3.6225,-10.4986,5.5642,1.2272,-1.0425,-0.3405
P1Z,Z,109863,0.8902,0.6157,0.5000,0.0000,0.6999,3.5991,-10.3609,5.4163,1.4322,-1.1283,-0.4495
P1Z,Z,109883,0.8936,0.6074,0.5062,0.0000,0.8177,3.1884,-9.7471,5.0128,1.6551,-1.1800,-0.4743
P1Z,Z,109903,0.9044,0.6086,0.5100,0.0000,0.7708,2.9321,-9.1903,4.4559,1.8552,-1.0860,-0.4159
P1Z,Z,109923,0.8932,0.6107,0.5033,0.0000,0.7694,2.8231,-8.5616,3.8021,2.0118,-1.0018,-0.3467
P1Z,Z,109943,0.8947,0.6078,0.5191,0.0000,0.8393,2.7962,-8.0119,3.1932,2.1306,-0.9867,-0.2855
P1Z,Z,109963,0.8932,0.6082,0.5186,0.0000,0.7666,2.4483,-7.7263,2.4992,2.2086,-1.0547,-0.2388
P1Z,Z,109983,0.8917,0.6095,0.5048,0.0000,0.7952,2.1771,-7.6108,1.6999,2.2099,-1.0738,-0.1835
P1Z,Z,110003,0.8929,0.6103,0.5086,0.0000,0.7074,2.0489,-7.8359,1.0065,2.0821,-1.0083,-0.1085
P1Z,Z,110023,0.8925,0.6086,0.5067,0.0000,0.8145,2.0771,-7.6377,0.5024,1.8943,-0.9178,-0.0125
P1Z,Z,110043,0.8921,0.6070,0.5004,0.0000,0.7370,2.3094,-7.5886,0.1269,1.7491,-0.7790,0.0803
P1Z,Z,110063,0.8921,0.6082,0.5081,0.0000,0.7093,2.7064,-7.5647,-0.2323,1.6004,-0.7288,0.0949
P1Z,Z,110083,0.8921,0.6086,0.5138,0.0000,0.7487,2.9052,-7.8593,-0.5473,1.4434,-0.6965,0.0775
P1Z,Z,110103,0.8914,0.6095,0.5138,0.0000,0.7807,2.9525,-7.8964,-0.8017,1.2921,-0.6676,0.0906
P1Z,Z,110123,0.8951,0.6086,0.5191,0.0000,0.7957,2.8722,-8.0515,-1.0388,1.1659,-0.6267,0.0694
P1Z,Z,110143,0.8917,0.6086,0.5114,0.0000,0.7506,2.7621,-8.1425,-1.1688,1.0364,-0.6053,0.0561
P1Z,Z,110163,0.8914,0.6049,0.5148,0.0000,0.7886,2.5279,-8.3125,-1.2562,0.9044,-0.4830,0.0758
P1Z,Z,110183,0.8929,0.6095,0.5110,0.0000,0.7792,2.6279,-8.1856,-1.3101,0.8316,-0.3336,0.1134
P1Z,Z,110203,0.8914,0.6070,0.5177,0.0000,0.8238,2.6710,-8.4071,-1.5538,0.7659,-0.2230,0.1644
P1Z,Z,110223,0.8943,0.6086,0.5248,0.0000,0.8046,2.8980,-8.3592,-1.8190,0.6209,-0.1847,0.1380
P1Z,Z,110243,0.8929,0.6086,0.5134,0.0000,0.7886,2.6992,-8.3149,-2.1693,0.4744,-0.1136,0.1400
P1Z,Z,110263,0.8902,0.6070,0.5167,0.0000,0.7417,2.7668,-8.3916,-2.7525,0.3094,0.0709,0.2124
P1Z,Z,110283,0.8940,0.6082,0.5205,0.0000,0.7830,3.1321,-8.3203,-3.2740,0.0569,0.2952,0.2372
P1Z,Z,110303,0.8921,0.6074,0.5153,0.0000,0.7356,3.6931,-8.5023,-3.3434,-0.2174,0.4430,0.1808
P1Z,Z,110323,0.8925,0.6057,0.5167,0.0000,0.8107,4.0057,-8.6424,-3.1201,-0.4742,0.4401,0.0302
P1Z,Z,110343,0.8955,0.6078,0.5234,0.0000,0.7708,3.8458,-8.8724,-2.8094,-0.6370,0.4325,-0.1428
P1Z,Z,110363,0.8958,0.6090,0.5167,0.0000,0.8116,3.4746,-9.2807,-2.5621,-0.6989,0.5710,-0.2181
P1Z,Z,110383,0.8962,0.6124,0.5143,0.0000,0.7177,3.4979,-9.7178,-2.5070,-0.7717,0.8516,-0.1873
P1Z,Z,110403,0.8910,0.6103,0.5220,0.0000,0.7365,3.8009,-9.5561,-2.4794,-0.8853,1.1301,-0.1320
P1Z,Z,110423,0.8977,0.6061,0.5282,0.0000,0.8051,4.3709,-9.2705,-2.3585,-1.0260,1.3528,-0.1399
P1Z,Z,110443,0.8988,0.6090,0.5129,0.0000,0.7417,4.5859,-8.9747,-1.6639,-1.1804,1.3771,-0.3174
P1Z,Z,110463,0.8936,0.6115,0.5201,0.0000,0.7680,3.6746,-8.5891,-1.1724,-1.2073,1.3399,-0.4752
P1Z,Z,110483,0.8929,0.6090,0.5344,0.0000,0.7276,3.1339,-8.4377,-0.7790,-1.2449,1.5515,-0.4903
P1Z,Z,110503,0.8914,0.6107,0.5397,0.0000,0.8318,2.8106,-8.6209,0.0509,-1.4325,1.6671,-0.4241
P1Z,Z,110523,0.8940,0.6090,0.5201,0.0000,0.7853,2.2118,-8.3317,1.1969,-1.5669,1.6887,-0.3605
P1Z,Z,110543,0.8936,0.6107,0.5248,0.0000,0.7947,2.1094,-8.4335,2.4202,-1.5419,1.6180,-0.3476
P1Z,Z,110563,0.8910,0.6099,0.5186,0.0000,0.7699,1.8118,-8.2975,3.5105,-1.4136,1.3939,-0.4299
P1Z,Z,110583,0.8936,0.6119,0.5201,0.0000,0.8088,1.2873,-8.4868,4.3302,-1.1987,1.1371,-0.4947
P1Z,Z,110603,0.8936,0.6115,0.5148,0.0000,0.7530,0.7167,-8.8221,4.9158,-1.0155,0.9498,-0.4647
P1Z,Z,110623,0.8947,0.6115,0.5134,0.0000,0.7478,0.1467,-8.9807,5.6457,-0.8747,0.7741,-0.4005
P1Z,Z,110643,0.8910,0.6119,0.5114,0.0000,0.7210,-0.4395,-9.0167,6.5600,-0.6720,0.5153,-0.3399
P1Z,Z,110663,0.8943,0.6099,0.5138,0.0000,0.7135,-1.0520,-9.0693,7.1934,-0.4167,0.2786,-0.2037
P1Z,Z,110683,0.8970,0.6111,0.5158,0.0000,0.8069,-1.4867,-9.0502,7.2306,-0.1612,0.1104,-0.0133
P1Z,Z,110703,0.8943,0.6090,0.5483,0.0000,0.8196,-1.2490,-9.0945,6.8785,0.0278,-0.0215,0.1795
P1Z,Z,110723,0.8906,0.6086,0.5148,0.0000,0.7163,-0.7796,-8.8346,6.4438,0.1208,-0.1911,0.3371
P1Z,Z,110743,0.8929,0.6099,0.5167,0.0000,0.7009,-0.1898,-8.6257,5.9804,0.1945,-0.4002,0.4270
P1Z,Z,110763,0.8899,0.6078,0.5181,0.0000,0.7436,0.3407,-8.3107,5.6031,0.2658,-0.5921,0.4767
P1Z,Z,110783,0.8914,0.6103,0.4971,0.0000,0.7408,0.8610,-8.1640,5.0661,0.3573,-0.7714,0.5252
P1Z,Z,110803,0.8925,0.6099,0.5134,0.0000,0.8149,1.2568,-7.9880,4.4901,0.4155,-0.9210,0.5664
P1Z,Z,110823,0.8899,0.6086,0.5191,0.0000,0.7210,1.5675,-7.8916,3.8829,0.4199,-1.0112,0.6278
P1Z,Z,110843,0.8906,0.6082,0.5071,0.0000,0.8248,2.0004,-7.8431,3.3015,0.3700,-1.1161,0.6793
P1Z,Z,110863,0.8899,0.6140,0.5071,0.0000,0.7234,2.2022,-7.6036,2.8824,0.3222,-1.2573,0.6895
P1Z,Z,110883,0.8940,0.6078,0.5095,0.0000,0.7882,2.1597,-7.5575,2.7142,0.2250,-1.3643,0.7389
P1Z,Z,110903,0.8914,0.6082,0.5014,0.0000,0.7530,2.3693,-7.4599,2.5944,0.1342,-1.4532,0.8100
P1Z,Z,110923,0.8921,0.6078,0.4961,0.0000,0.7858,2.4549,-7.5174,2.5339,0.0714,-1.5216,0.8839
P1Z,Z,110943,0.8925,0.6095,0.5071,0.0000,0.7821,2.7052,-7.7575,2.6423,0.0385,-1.5888,0.9535
P1Z,Z,110963,0.8854,0.6061,0.4823,0.0000,0.7553,2.9213,-8.2305,2.7794,0.0456,-1.7607,0.9838
P1Z,Z,110983,0.8910,0.6082,0.5048,0.0000,0.7070,2.6633,-8.4628,2.7633,0.0941,-1.9064,1.0130
P1Z,Z,111003,0.8906,0.6149,0.5153,0.0000,0.8177,2.7668,-8.8771,2.7381,0.1593,-1.9569,1.1069
P1Z,Z,111023,0.8932,0.6078,0.5004,0.0000,0.7370,2.8213,-9.0819,2.5699,0.1713,-1.9144,1.3193
P1Z,Z,111043,0.8914,0.6057,0.5033,0.0000,0.8102,3.4081,-9.1915,2.2896,0.1876,-1.7862,1.5633
P1Z,Z,111063,0.8917,0.6028,0.5071,0.0000,0.7309,4.5697,-8.9729,1.9927,0.2623,-1.6272,1.7038
P1Z,Z,111083,0.8906,0.6016,0.5268,0.0000,0.7323,5.6894,-8.9292,1.5657,0.4343,-1.5665,1.6882
P1Z,Z,111103,0.8899,0.6074,0.5043,0.0000,0.8149,6.9438,-8.9322,0.8760,0.5883,-1.5712,1.4778
P1Z,Z,111123,0.8962,0.6061,0.5057,0.0000,0.8309,7.1635,-9.1011,-0.0635,0.6011,-1.5134,1.2493
P1Z,Z,111143,0.8914,0.6070,0.4995,0.0000,0.7807,7.4102,-9.2819,-1.0053,0.4748,-1.1493,1.0961
P1Z,Z,111163,0.8917,0.6065,0.5033,0.0000,0.7558,8.0263,-9.2951,-1.7765,0.2419,-0.6269,0.9765
P1Z,Z,111183,0.8891,0.6036,0.5181,0.0000,0.7210,8.8508,-9.2514,-2.0106,-0.0249,-0.2101,0.7193
P1Z,Z,111203,0.8899,0.6028,0.4942,0.0000,0.7886,9.0717,-9.1855,-1.8621,-0.3220,-0.0144,0.3283
P1Z,Z,111223,0.8899,0.6061,0.4981,0.0000,0.8759,8.4221,-9.0113,-1.4586,-0.6098,0.1062,-0.0951
P1Z,Z,111243,0.8891,0.6045,0.5057,0.0000,0.7858,7.4150,-8.5364,-0.8173,-0.7997,0.3184,-0.3828
P1Z,Z,111263,0.8906,0.6041,0.5009,0.0000,0.7079,6.7504,-8.3880,-0.4904,-0.9365,0.6011,-0.5297
P1Z,Z,111283,0.8895,0.6036,0.4899,0.0000,0.7351,6.3624,-8.1628,-0.2263,-1.1387,0.9348,-0.5630
P1Z,Z,111303,0.8880,0.6036,0.4851,0.0000,0.8098,6.5564,-7.6371,0.2197,-1.3587,1.1834,-0.5829
P1Z,Z,111323,0.8884,0.6032,0.5167,0.0000,0.7675,6.4420,-7.3904,0.8077,-1.4981,1.2929,-0.7172
P1Z,Z,111343,0.8891,0.6024,0.5062,0.0000,0.7891,6.2468,-7.4886,1.2598,-1.5831,1.4560,-0.8697
P1Z,Z,111363,0.8891,0.6032,0.5306,0.0000,0.7558,6.1570,-7.8676,1.9154,-1.7539,1.6522,-1.0040
P1Z,Z,111383,0.8906,0.6011,0.4957,0.0000,0.7858,6.0163,-7.7886,2.6573,-1.9261,1.8442,-1.1686
P1Z,Z,111403,0.8906,0.6057,0.5440,0.0000,0.8116,5.7636,-7.5742,3.3872,-2.0169,2.0050,-1.3274
P1Z,Z,111423,0.8906,0.6032,0.4804,0.0000,0.7088,5.4768,-7.4695,4.3278,-2.0378,2.1305,-1.4689
P1Z,Z,111443,0.8888,0.6028,0.4942,0.0000,0.7483,5.1176,-7.3144,5.3409,-1.9424,2.0328,-1.5553
P1Z,Z,111463,0.8895,0.6124,0.4985,0.0000,0.7187,4.3446,-7.4533,6.3288,-1.8187,1.8941,-1.5836
P1Z,Z,111483,0.8914,0.6053,0.4976,0.0000,0.7126,3.6410,-7.3156,7.4485,-1.6772,1.7736,-1.4894
P1Z,Z,111503,0.8910,0.6074,0.4947,0.0000,0.7764,3.5422,-7.0665,8.9873,-1.3732,1.5134,-1.4071
P1Z,Z,111523,0.8906,0.6061,0.4981,0.0000,0.7379,2.5717,-7.3755,10.4028,-0.8328,0.9477,-1.3571
P1Z,Z,111543,0.8925,0.5962,0.4976,0.0000,0.7328,0.8933,-7.9844,10.7381,-0.2935,0.5305,-1.2177
P1Z,Z,111563,0.8914,0.6070,0.5043,0.0000,0.7839,0.0126,-8.2257,10.5752,0.1391,0.2758,-0.8856
P1Z,Z,111583,0.8906,0.6041,0.5033,0.0000,0.7342,-0.3916,-8.4622,9.9824,0.4600,0.1833,-0.5395
P1Z,Z,111603,0.8888,0.6057,0.4894,0.0000,0.7952,0.0826,-8.3425,9.5136,0.6416,0.0859,-0.2582
P1Z,Z,111623,0.8906,0.6045,0.4880,0.0000,0.7769,0.8874,-8.0940,8.9598,0.8100,-0.1307,-0.0725
P1Z,Z,111643,0.8880,0.6082,0.4966,0.0000,0.7896,1.5065,-8.1401,8.1724,0.9328,-0.4076,-0.0301
P1Z,Z,111663,0.8869,0.6003,0.4971,0.0000,0.8074,1.8861,-8.2137,7.6742,0.9751,-0.6354,-0.0009
P1Z,Z,111683,0.8884,0.6032,0.4966,0.0000,0.7853,2.3830,-8.1215,7.2156,1.0593,-0.7448,0.0918
P1Z,Z,111703,0.8832,0.5995,0.4976,0.0000,0.8238,3.0908,-8.3820,6.5755,1.1952,-0.8052,0.1314
P1Z,Z,111723,0.8906,0.6016,0.5028,0.0000,0.6929,3.6793,-8.9388,5.9235,1.2965,-0.9108,0.0440
P1Z,Z,111743,0.8880,0.6036,0.4784,0.0000,0.7783,3.8464,-9.4388,5.3768,1.4073,-1.0051,-0.0990
P1Z,Z,111763,0.8902,0.6049,0.5004,0.0000,0.7938,3.8799,-9.9304,4.7691,1.5075,-1.0937,-0.2630
P1Z,Z,111783,0.8895,0.6065,0.4947,0.0000,0.7619,3.8506,-10.2477,4.2799,1.6153,-1.1744,-0.4263
P1Z,Z,111803,0.8902,0.6061,0.5038,0.0000,0.7971,3.3842,-10.2926,3.6889,1.7347,-1.2147,-0.5299
P1Z,Z,111823,0.8917,0.6095,0.5028,0.0000,0.7088,3.1524,-9.9046,3.2908,1.8133,-1.1321,-0.5448
P1Z,Z,111843,0.8910,0.6053,0.4933,0.0000,0.8168,2.9656,-9.3424,2.7645,1.9241,-1.0106,-0.4892
P1Z,Z,111863,0.8910,0.6078,0.4933,0.0000,0.7530,2.7824,-8.9909,1.9280,2.0430,-0.9294,-0.3964
P1Z,Z,111883,0.8902,0.6099,0.5009,0.0000,0.7281,2.6136,-8.6436,1.0418,2.0634,-0.8532,-0.3533
P1Z,Z,111903,0.8932,0.6061,0.5091,0.0000,0.7332,2.4956,-8.2556,0.3167,1.9971,-0.9152,-0.3191
P1Z,Z,111923,0.8932,0.6090,0.5071,0.0000,0.7501,2.0980,-7.9383,-0.1802,1.8815,-1.0130,-0.2278
P1Z,Z,111943,0.8914,0.6028,0.5028,0.0000,0.8229,1.8861,-7.7168,-0.5958,1.7653,-1.0154,-0.1234
P1Z,Z,111963,0.8914,0.6095,0.4966,0.0000,0.7670,1.7448,-7.5102,-0.9113,1.6394,-0.9421,-0.0590
P1Z,Z,111983,0.8917,0.6070,0.5134,0.0000,0.7464,1.8998,-7.3174,-1.0891,1.5107,-0.8270,0.0053
P1Z,Z,112003,0.8929,0.6078,0.5244,0.0000,0.7807,1.9819,-7.1785,-1.4418,1.3991,-0.7851,0.1143
P1Z,Z,112023,0.8902,0.6099,0.5301,0.0000,0.7389,2.2591,-7.2240,-1.7969,1.2540,-0.6727,0.2045
P1Z,Z,112043,0.8917,0.6090,0.5100,0.0000,0.8084,2.2783,-7.2503,-2.2878,1.0674,-0.5332,0.2903
P1Z,Z,112063,0.8992,0.6086,0.5287,0.0000,0.7811,2.6579,-7.2138,-2.7058,0.8272,-0.3339,0.3040
P1Z,Z,112083,0.8932,0.6095,0.5167,0.0000,0.7210,2.9614,-7.0827,-2.9321,0.6121,-0.2777,0.2710
P1Z,Z,112103,0.8914,0.6095,0.5134,0.0000,0.7891,2.9255,-7.1599,-3.1249,0.4507,-0.2149,0.1904
P1Z,Z,112123,0.8910,0.6095,0.5239,0.0000,0.7295,3.0069,-7.3623,-3.3854,0.3034,-0.1073,0.0993
P1Z,Z,112143,0.8936,0.6028,0.5153,0.0000,0.7239,2.9590,-7.6078,-3.5380,0.0870,0.0618,0.0934
P1Z,Z,112163,0.8947,0.6115,0.5158,0.0000,0.7788,3.1093,-8.0371,-3.5470,-0.1584,0.1941,0.1102
P1Z,Z,112183,0.8929,0.6115,0.5416,0.0000,0.7131,3.1021,-8.3281,-3.3931,-0.3708,0.3277,0.1123
P1Z,Z,112203,0.8943,0.6078,0.5244,0.0000,0.7483,3.2638,-8.9316,-3.0028,-0.5425,0.4537,0.0666
P1Z,Z,112223,0.8929,0.6099,0.5339,0.0000,0.7422,3.2572,-9.1125,-2.5734,-0.6527,0.5061,-0.0033
P1Z,Z,112243,0.8936,0.6103,0.5181,0.0000,0.7253,3.1105,-9.1699,-2.4495,-0.6848,0.6046,-0.0203
P1Z,Z,112263,0.8936,0.6111,0.5225,0.0000,0.7539,3.1465,-9.2591,-2.7417,-0.7474,0.8247,0.0486
P1Z,Z,112283,0.8929,0.6099,0.5186,0.0000,0.7797,3.5141,-9.1598,-2.8597,-0.8813,1.0846,0.1099
P1Z,Z,112303,0.8910,0.6103,0.5177,0.0000,0.7332,4.0518,-9.0855,-2.5118,-1.0373,1.1700,0.0461
P1Z,Z,112323,0.8917,0.6107,0.5215,0.0000,0.7722,3.6746,-8.8107,-2.2950,-1.1034,1.1758,-0.0345
P1Z,Z,112343,0.8940,0.6065,0.5100,0.0000,0.7023,3.4057,-8.8879,-2.0974,-1.1498,1.3118,-0.0594
P1Z,Z,112363,0.8925,0.6115,0.5191,0.0000,0.8238,3.4871,-9.1184,-1.4598,-1.3081,1.4591,-0.0915
P1Z,Z,112383,0.8917,0.6128,0.5158,0.0000,0.7886,3.2542,-8.9873,-0.6934,-1.4067,1.5275,-0.1194
P1Z,Z,112403,0.8899,0.6099,0.4990,0.0000,0.6882,3.1165,-8.7376,-0.1233,-1.4583,1.6827,-0.0995
P1Z,Z,112423,0.8902,0.6090,0.5210,0.0000,0.7248,3.1105,-8.8682,0.7592,-1.5130,1.6958,-0.0994
P1Z,Z,112443,0.8925,0.6090,0.5177,0.0000,0.7910,2.9519,-8.8227,2.2705,-1.5561,1.4753,-0.2567
P1Z,Z,112463,0.8914,0.6124,0.5148,0.0000,0.7717,2.4339,-8.6173,3.7518,-1.4478,1.1698,-0.3908
P1Z,Z,112483,0.8910,0.6111,0.5162,0.0000,0.7905,1.5633,-8.7783,5.0834,-1.2083,0.9005,-0.4663
P1Z,Z,112503,0.8921,0.6119,0.5143,0.0000,0.7769,0.7820,-9.1957,6.2468,-0.9695,0.5654,-0.5384
P1Z,Z,112523,0.8936,0.6074,0.5148,0.0000,0.7398,-0.4521,-9.1574,7.0108,-0.6687,0.2080,-0.4992
P1Z,Z,112543,0.8858,0.6111,0.5052,0.0000,0.7271,-1.4304,-9.2083,7.3042,-0.3413,0.0005,-0.3273
P1Z,Z,112563,0.8914,0.6128,0.5406,0.0000,0.7825,-1.8064,-9.2268,7.2581,-0.1564,-0.0418,-0.0306
P1Z,Z,112583,0.8902,0.6124,0.5091,0.0000,0.7332,-1.6029,-8.7340,6.9102,-0.0502,-0.0545,0.3082
P1Z,Z,112603,0.8910,0.6036,0.5177,0.0000,0.7924,-0.6562,-8.2730,6.3869,0.0385,-0.1119,0.5498
P1Z,Z,112623,0.8895,0.6086,0.5076,0.0000,0.7121,0.3712,-7.9796,5.8486,0.0853,-0.3709,0.6249
P1Z,Z,112643,0.8910,0.6082,0.5186,0.0000,0.7699,1.1652,-7.6964,5.5642,0.1227,-0.6631,0.6033
P1Z,Z,112663,0.8888,0.6086,0.5076,0.0000,0.7821,1.6142,-7.4024,5.2277,0.1925,-0.8661,0.6045
P1Z,Z,112683,0.8899,0.6090,0.4885,0.0000,0.7952,2.0076,-7.3862,4.6805,0.2398,-0.9832,0.6229
P1Z,Z,112703,0.8895,0.6095,0.5067,0.0000,0.7361,2.4435,-7.2437,4.0985,0.2491,-1.0778,0.6703
P1Z,Z,112723,0.8880,0.6090,0.5071,0.0000,0.7412,2.6675,-7.1773,3.5404,0.2477,-1.2305,0.6555
P1Z,Z,112743,0.8902,0.6090,0.5124,0.0000,0.7295,2.8297,-7.4761,3.2387,0.2354,-1.4180,0.6231
P1Z,Z,112763,0.8891,0.6078,0.5019,0.0000,0.7675,2.6681,-7.5096,2.8393,0.2052,-1.5235,0.6560
P1Z,Z,112783,0.8876,0.6086,0.5043,0.0000,0.7436,2.8896,-8.0113,2.5034,0.1893,-1.6068,0.7393
P1Z,Z,112803,0.8869,0.6057,0.5071,0.0000,0.8360,2.8070,-8.2952,2.4070,0.0421,-1.6990,0.8274
P1Z,Z,112823,0.8888,0.6003,0.5100,0.0000,0.8084,2.5034,-8.4197,2.3974,-0.0667,-1.7363,0.9828
P1Z,Z,112843,0.8910,0.5978,0.4894,0.0000,0.8210,2.6022,-8.7550,2.5184,-0.1254,-1.6530,1.1884
P1Z,Z,112863,0.8888,0.6024,0.5043,0.0000,0.7459,3.2459,-8.8244,2.4908,-0.1560,-1.6683,1.3920
P1Z,Z,112883,0.8888,0.6061,0.5052,0.0000,0.6807,3.6770,-8.8843,2.3058,-0.1447,-1.7800,1.4713
P1Z,Z,112903,0.8902,0.6053,0.5028,0.0000,0.8173,4.0727,-8.8185,1.9879,-0.0617,-1.7381,1.5079
P1Z,Z,112923,0.8895,0.6028,0.5062,0.0000,0.8196,4.7302,-9.2130,1.5879,0.0175,-1.6706,1.5027
P1Z,Z,112943,0.8873,0.6053,0.4976,0.0000,0.8051,5.1697,-9.2675,1.3688,0.0325,-1.5929,1.4525
P1Z,Z,112963,0.8902,0.6036,0.5110,0.0000,0.8088,5.8397,-9.0346,1.1275,0.0521,-1.4574,1.3931
P1Z,Z,112983,0.8846,0.6020,0.5000,0.0000,0.7933,6.5354,-9.3436,0.5473,0.0677,-1.2584,1.2965
P1Z,Z,113003,0.8899,0.6041,0.5038,0.0000,0.8173,7.4347,-9.5352,0.0724,-0.0697,-1.0271,1.1607
P1Z,Z,113023,0.8888,0.5999,0.5043,0.0000,0.7835,8.2341,-9.3657,0.0138,-0.2370,-0.7998,0.9316
P1Z,Z,113043,0.8891,0.5986,0.4942,0.0000,0.7919,8.5975,-8.9664,0.1269,-0.3220,-0.5243,0.6455
P1Z,Z,113063,0.8873,0.6041,0.5253,0.0000,0.7304,8.7382,-9.0514,0.1437,-0.3525,-0.1426,0.3645
P1Z,Z,113083,0.8970,0.5991,0.4985,0.0000,0.7478,8.7011,-9.2520,0.2150,-0.4295,0.1986,0.0560
P1Z,Z,113103,0.8876,0.6024,0.5004,0.0000,0.7623,8.0101,-9.2568,0.3096,-0.5181,0.4443,-0.2337
P1Z,Z,113123,0.8906,0.6032,0.5014,0.0000,0.7379,7.3719,-9.0885,0.3335,-0.6175,0.7131,-0.4381
P1Z,Z,113143,0.8899,0.6028,0.5043,0.0000,0.7933,6.9444,-8.9448,0.4311,-0.7432,0.9042,-0.5355
P1Z,Z,113163,0.8869,0.6003,0.4976,0.0000,0.7891,6.5408,-8.2532,0.7245,-0.8803,1.1807,-0.6025
P1Z,Z,113183,0.8876,0.6016,0.5000,0.0000,0.7586,6.8462,-7.9251,1.1526,-0.9918,1.4509,-0.6983
P1Z,Z,113203,0.8876,0.6016,0.5019,0.0000,0.6609,6.8659,-7.7311,1.6675,-1.1246,1.5094,-0.8899
P1Z,Z,113223,0.8865,0.5941,0.4751,0.0000,0.7999,6.2899,-7.6671,2.1328,-1.2231,1.5352,-1.0797
P1Z,Z,113243,0.8873,0.6003,0.4995,0.0000,0.7821,5.7001,-7.5964,2.4920,-1.2726,1.6269,-1.1918
P1Z,Z,113263,0.8891,0.5978,0.5024,0.0000,0.7915,5.3846,-7.4641,2.9788,-1.2918,1.7773,-1.2405
P1Z,Z,113283,0.8865,0.6011,0.4942,0.0000,0.8004,5.2187,-7.3294,3.3788,-1.3735,1.8627,-1.2127
P1Z,Z,113303,0.8861,0.5895,0.4947,0.0000,0.7440,5.0439,-6.8468,3.7841,-1.4719,1.9287,-1.1959
P1Z,Z,113323,0.8884,0.6007,0.4789,0.0000,0.7220,4.8577,-6.4462,4.4158,-1.5472,1.9279,-1.1942
P1Z,Z,113343,0.8869,0.6024,0.4880,0.0000,0.7267,4.6535,-6.4887,5.5978,-1.5781,1.8162,-1.2514
P1Z,Z,113363,0.8865,0.5991,0.5143,0.0000,0.7858,3.7889,-6.6971,7.1419,-1.4690,1.5676,-1.2465
P1Z,Z,113383,0.8865,0.5991,0.4928,0.0000,0.7577,3.1117,-7.0940,8.5843,-1.2073,1.2762,-1.2061
P1Z,Z,113403,0.8869,0.5999,0.4717,0.0000,0.7177,2.3322,-7.4641,9.6968,-0.8724,0.9273,-1.1334
P1Z,Z,113423,0.8865,0.6036,0.4909,0.0000,0.7408,1.4334,-7.6736,10.2190,-0.4870,0.5978,-0.9200
P1Z,Z,113443,0.8880,0.6036,0.4976,0.0000,0.7821,0.9999,-7.5880,10.1423,-0.1312,0.4671,-0.6265
P1Z,Z,113463,0.8876,0.6020,0.4914,0.0000,0.7562,1.2460,-7.4826,9.7902,0.1528,0.3365,-0.3596
P1Z,Z,113483,0.8861,0.6028,0.4674,0.0000,0.7835,1.5633,-7.3809,9.5274,0.3854,0.0902,-0.2053
P1Z,Z,113503,0.8888,0.6020,0.4737,0.0000,0.8027,1.7496,-7.3832,8.9250,0.5826,-0.1769,-0.0869
P1Z,Z,113523,0.8873,0.5995,0.4837,0.0000,0.8088,2.0106,-7.1515,8.3484,0.7337,-0.4001,0.0237
P1Z,Z,113543,0.8869,0.6028,0.4947,0.0000,0.7797,2.2932,-7.4180,7.6389,0.8428,-0.5741,0.1379
P1Z,Z,113563,0.8861,0.6020,0.4818,0.0000,0.7342,2.9135,-7.6760,7.0779,0.8962,-0.7261,0.2154
P1Z,Z,113583,0.8876,0.5991,0.4904,0.0000,0.7886,3.4039,-8.0012,6.7168,0.9812,-0.9385,0.2130
P1Z,Z,113603,0.8869,0.6041,0.4842,0.0000,0.7389,3.4949,-8.4706,6.1732,1.1505,-1.0885,0.1669
P1Z,Z,113623,0.8865,0.6003,0.4952,0.0000,0.7839,3.7979,-9.1687,5.5457,1.2688,-1.1730,0.1350
P1Z,Z,113643,0.8880,0.6053,0.4856,0.0000,0.7300,4.1272,-9.5879,4.9218,1.3278,-1.2157,0.0702
P1Z,Z,113663,0.8861,0.6036,0.4957,0.0000,0.7778,4.4374,-9.5921,4.4344,1.4088,-1.2313,-0.0518
P1Z,Z,113683,0.8865,0.6032,0.4904,0.0000,0.7835,4.3787,-9.6897,4.0200,1.5234,-1.2413,-0.1720
P1Z,Z,113703,0.8880,0.6028,0.5028,0.0000,0.8290,4.4984,-9.4148,3.7015,1.6491,-1.3175,-0.3239
P1Z,Z,113723,0.8873,0.6024,0.4971,0.0000,0.7065,3.9973,-9.3837,3.0812,1.8259,-1.3510,-0.3926
P1Z,Z,113743,0.8876,0.6016,0.4799,0.0000,0.7403,3.7997,-9.3903,2.3310,1.9133,-1.2008,-0.3768
P1Z,Z,113763,0.8873,0.6032,0.4985,0.0000,0.7872,3.6093,-9.0801,1.7094,1.9365,-1.0481,-0.3195
P1Z,Z,113783,0.8861,0.6028,0.5091,0.0000,0.7239,3.4901,-8.7269,1.2801,1.9311,-0.8773,-0.2661
P1Z,Z,113803,0.8843,0.6053,0.5014,0.0000,0.7459,3.6883,-8.3772,0.8413,1.9489,-0.8288,-0.2426
P1Z,Z,113823,0.8873,0.6011,0.4880,0.0000,0.7717,3.5542,-8.0994,0.4305,1.9396,-0.8174,-0.2643
P1Z,Z,113843,0.8813,0.6011,0.5292,0.0000,0.7126,3.3327,-7.9592,-0.0856,1.8960,-0.7509,-0.2753
P1Z,Z,113863,0.8873,0.5991,0.5181,0.0000,0.8018,3.1997,-7.8988,-0.5137,1.8135,-0.7228,-0.2654
P1Z,Z,113883,0.8865,0.6016,0.5081,0.0000,0.7239,2.6830,-7.6257,-0.9802,1.7293,-0.7204,-0.2192
P1Z,Z,113903,0.8869,0.6061,0.5363,0.0000,0.7661,2.2489,-7.6545,-1.7274,1.6062,-0.5890,-0.1280
P1Z,Z,113923,0.8884,0.6036,0.5100,0.0000,0.8149,2.3842,-7.7563,-2.2681,1.3420,-0.4409,0.0053
P1Z,Z,113943,0.8888,0.6024,0.5095,0.0000,0.8539,2.3214,-7.5820,-2.6866,1.0467,-0.3673,0.1508
P1Z,Z,113963,0.8914,0.6011,0.5158,0.0000,0.7131,2.5124,-7.4246,-2.9704,0.8312,-0.2979,0.2026
P1Z,Z,113983,0.8880,0.6007,0.5220,0.0000,0.7145,2.5669,-7.4389,-3.2315,0.6018,-0.2153,0.2026
P1Z,Z,114003,0.8902,0.6057,0.5301,0.0000,0.7783,2.7028,-7.4371,-3.5021,0.3824,-0.0370,0.2050
P1Z,Z,114023,0.8955,0.6028,0.4866,0.0000,0.7398,3.1914,-7.6683,-3.8614,0.1212,0.1915,0.2425
P1Z,Z,114043,0.8906,0.6074,0.5306,0.0000,0.7783,3.8829,-7.6269,-3.8781,-0.1845,0.2735,0.2653
P1Z,Z,114063,0.8895,0.5953,0.4995,0.0000,0.7131,4.0302,-7.6635,-3.8362,-0.4387,0.3960,0.2296
P1Z,Z,114083,0.8906,0.6074,0.5014,0.0000,0.7835,4.2913,-8.0413,-3.6662,-0.6666,0.6422,0.1689
P1Z,Z,114103,0.8895,0.6078,0.5550,0.0000,0.7440,4.5907,-8.2449,-3.3662,-0.8560,0.8492,0.1183
P1Z,Z,114123,0.8917,0.6090,0.5196,0.0000,0.7849,4.9337,-8.3790,-3.1920,-0.9858,0.9670,0.0318
P1Z,Z,114143,0.8899,0.6070,0.5239,0.0000,0.8098,4.8206,-8.7328,-2.8537,-1.1421,1.0869,-0.0814
P1Z,Z,114163,0.8910,0.6041,0.4952,0.0000,0.7891,4.6793,-8.5832,-2.1813,-1.3031,1.2309,-0.1768
P1Z,Z,114183,0.8895,0.6099,0.5296,0.0000,0.7788,4.4314,-8.6281,-1.6741,-1.3763,1.4051,-0.2301
P1Z,Z,114203,0.8888,0.6074,0.5248,0.0000,0.7112,4.6086,-8.7670,-0.8652,-1.4528,1.4734,-0.3472
P1Z,Z,114223,0.8929,0.6086,0.5110,0.0000,0.7135,3.9212,-8.7760,-0.0940,-1.4805,1.3695,-0.4590
P1Z,Z,114243,0.8910,0.6086,0.5181,0.0000,0.8107,3.1459,-8.7239,0.3682,-1.4360,1.4703,-0.4477
P1Z,Z,114263,0.8895,0.6065,0.4947,0.0000,0.7783,3.0962,-9.0376,1.1574,-1.4614,1.6196,-0.4076
P1Z,Z,114283,0.8888,0.6099,0.5210,0.0000,0.8140,2.7034,-8.7975,2.1944,-1.4469,1.5507,-0.4102
P1Z,Z,114303,0.8899,0.6099,0.5129,0.0000,0.8107,2.5142,-8.8496,3.0279,-1.3672,1.4181,-0.3962
P1Z,Z,114323,0.8880,0.6090,0.5191,0.0000,0.7492,2.2393,-8.7143,3.7344,-1.2949,1.2776,-0.4133
P1Z,Z,114343,0.8906,0.6086,0.5210,0.0000,0.7464,1.8555,-8.9047,4.9804,-1.2143,1.1154,-0.4632
P1Z,Z,114363,0.8921,0.6090,0.5076,0.0000,0.8060,1.1993,-8.7125,6.1558,-1.0351,0.8298,-0.5119
P1Z,Z,114383,0.8888,0.6119,0.5004,0.0000,0.8018,0.3850,-8.7849,6.8360,-0.7743,0.5753,-0.4839
P1Z,Z,114403,0.8899,0.6095,0.5100,0.0000,0.7375,-0.0934,-9.1520,7.3347,-0.5473,0.3882,-0.4042
P1Z,Z,114423,0.8902,0.6082,0.5105,0.0000,0.6835,-0.7910,-8.9909,7.5575,-0.3304,0.1244,-0.2623
P1Z,Z,114443,0.8910,0.6107,0.4966,0.0000,0.7774,-1.2718,-8.8077,7.2599,-0.0874,-0.0140,-0.0498
P1Z,Z,114463,0.8906,0.6074,0.5134,0.0000,0.6633,-0.9879,-8.7424,6.6534,0.0465,-0.0867,0.1780
P1Z,Z,114483,0.8891,0.6099,0.5048,0.0000,0.7473,-0.4521,-8.2952,6.1546,0.1207,-0.2498,0.3432
P1Z,Z,114503,0.8884,0.6099,0.5052,0.0000,0.7999,0.2185,-7.9838,5.6043,0.2060,-0.4728,0.4568
P1Z,Z,114523,0.8899,0.6074,0.5076,0.0000,0.8168,0.7119,-7.6982,5.1583,0.2569,-0.6797,0.5492
P1Z,Z,114543,0.8899,0.6090,0.5048,0.0000,0.7858,1.3508,-7.5958,4.7224,0.2627,-0.7911,0.6466
P1Z,Z,114563,0.8895,0.6095,0.5143,0.0000,0.7328,1.7627,-7.2455,4.3404,0.2244,-0.8492,0.7454
P1Z,Z,114583,0.8914,0.6090,0.5248,0.0000,0.7454,2.5166,-7.0180,4.1440,0.2701,-0.9240,0.7705
P1Z,Z,114603,0.8895,0.6099,0.5081,0.0000,0.7661,2.7926,-7.0611,3.8805,0.3163,-1.1413,0.7478
P1Z,Z,114623,0.8873,0.6065,0.4995,0.0000,0.7792,2.6166,-7.2809,3.5829,0.3256,-1.3427,0.7849
P1Z,Z,114643,0.8884,0.6086,0.5043,0.0000,0.7872,2.6016,-7.3850,3.5991,0.2394,-1.4329,0.8543
P1Z,Z,114663,0.8873,0.6041,0.5052,0.0000,0.7375,2.5267,-7.3611,3.9093,0.2324,-1.5635,0.9469
P1Z,Z,114683,0.8921,0.6053,0.5033,0.0000,0.7788,2.2196,-7.1419,3.8775,0.3031,-1.6040,1.1222
P1Z,Z,114703,0.8888,0.6090,0.5000,0.0000,0.7177,2.5028,-7.0911,3.3261,0.4124,-1.4342,1.3190
P1Z,Z,114723,0.8876,0.6082,0.5004,0.0000,0.8060,3.7464,-7.5754,2.6243,0.3796,-1.3848,1.4509
P1Z,Z,114743,0.8888,0.6074,0.4976,0.0000,0.7839,4.5176,-7.4677,2.0148,0.2217,-1.5544,1.4873
P1Z,Z,114763,0.8869,0.6041,0.5004,0.0000,0.7919,5.1056,-7.3198,1.5502,0.1240,-1.7055,1.4457
P1Z,Z,114783,0.8891,0.6074,0.5000,0.0000,0.8140,5.2199,-7.8305,1.0143,0.0111,-1.7247,1.4027
P1Z,Z,114803,0.8861,0.6041,0.5019,0.0000,0.7680,5.6103,-8.3083,0.6730,-0.1875,-1.6157,1.3824
P1Z,Z,114823,0.8869,0.6057,0.4990,0.0000,0.7839,5.8199,-8.6568,0.7095,-0.3832,-1.5302,1.3928
P1Z,Z,114843,0.8869,0.6020,0.5014,0.0000,0.7727,6.1869,-8.8592,0.8622,-0.5364,-1.4650,1.3995
P1Z,Z,114863,0.8873,0.6024,0.4909,0.0000,0.7792,6.4091,-9.2741,0.8790,-0.5993,-1.3654,1.3769
P1Z,Z,114883,0.8873,0.6024,0.4914,0.0000,0.7910,6.8605,-9.8531,0.5012,-0.5830,-1.2317,1.2889
P1Z,Z,114903,0.8861,0.6036,0.5086,0.0000,0.8065,7.3809,-10.3764,0.1503,-0.5942,-0.9771,1.2357
P1Z,Z,114923,0.8865,0.6028,0.4961,0.0000,0.7088,8.1652,-10.4728,0.2144,-0.6482,-0.6235,1.1323
P1Z,Z,114943,0.8835,0.6003,0.5119,0.0000,0.7487,9.0101,-10.2447,0.8401,-0.6426,-0.2426,0.8811
P1Z,Z,114963,0.8865,0.6003,0.5000,0.0000,0.8168,9.8202,-10.0124,1.3508,-0.4944,0.0484,0.4796
P1Z,Z,114983,0.8854,0.6020,0.4918,0.0000,0.7994,9.8250,-9.9675,1.5160,-0.3226,0.2280,-0.0165
P1Z,Z,115003,0.8869,0.5932,0.4961,0.0000,0.7464,9.1951,-9.5585,1.4382,-0.2547,0.4032,-0.4682
P1Z,Z,115023,0.8858,0.6020,0.5071,0.0000,0.7018,8.1970,-8.8933,1.2688,-0.2651,0.6486,-0.7635
P1Z,Z,115043,0.8861,0.6020,0.4890,0.0000,0.7408,7.5880,-8.4826,1.0706,-0.2878,0.9773,-0.9565
P1Z,Z,115063,0.8858,0.6049,0.4789,0.0000,0.7459,7.1725,-8.1664,1.0077,-0.4453,1.2778,-1.0569
P1Z,Z,115083,0.8869,0.6016,0.4971,0.0000,0.7013,6.9899,-7.8754,1.3191,-0.6404,1.4962,-1.1515
P1Z,Z,115103,0.8850,0.5991,0.4923,0.0000,0.7159,6.6480,-7.4174,1.5484,-0.7548,1.6574,-1.2335
P1Z,Z,115123,0.8846,0.5999,0.4942,0.0000,0.7957,6.5540,-7.2851,1.5244,-0.9040,1.8530,-1.2842
P1Z,Z,115143,0.8835,0.6007,0.4976,0.0000,0.7403,6.5905,-6.7689,1.9322,-1.1619,1.9909,-1.3399
P1Z,Z,115163,0.8850,0.6020,0.5129,0.0000,0.7365,6.4803,-6.2546,2.6818,-1.3444,2.0244,-1.4546
P1Z,Z,115183,0.8850,0.5999,0.4947,0.0000,0.7694,6.0642,-6.0588,3.5500,-1.4366,1.9358,-1.6112
P1Z,Z,115203,0.8854,0.6011,0.4966,0.0000,0.7300,5.3247,-6.0426,4.6200,-1.4985,1.7805,-1.7508
P1Z,Z,115223,0.8861,0.5966,0.5091,0.0000,0.8027,4.2763,-6.0582,6.1265,-1.5043,1.6049,-1.7677
P1Z,Z,115243,0.8813,0.5982,0.4914,0.0000,0.7863,3.4273,-6.2055,7.7635,-1.3354,1.3634,-1.7496
P1Z,Z,115263,0.8843,0.5986,0.4928,0.0000,0.7121,2.2483,-6.6695,8.9382,-1.0052,1.0127,-1.6551
P1Z,Z,115283,0.8813,0.6007,0.4995,0.0000,0.7802,1.1628,-7.0282,9.3909,-0.6174,0.7612,-1.4202
P1Z,Z,115303,0.8843,0.5986,0.4928,0.0000,0.7797,0.6239,-7.3946,9.4472,-0.2882,0.6098,-1.0970
P1Z,Z,115323,0.8843,0.5982,0.4894,0.0000,0.7187,0.1934,-7.4587,9.0017,-0.0153,0.5756,-0.6514
P1Z,Z,115343,0.8846,0.5970,0.4909,0.0000,0.8295,0.6784,-7.4270,8.1928,0.1619,0.6165,-0.2048
P1Z,Z,115363,0.8839,0.5995,0.4971,0.0000,0.7060,1.5813,-7.0246,7.3473,0.2746,0.5021,0.0601
P1Z,Z,115383,0.8824,0.5974,0.4646,0.0000,0.7807,2.2777,-6.9096,6.4636,0.3435,0.2742,0.1759
P1Z,Z,115403,0.8835,0.5970,0.4756,0.0000,0.7994,2.7579,-6.8551,5.6936,0.3244,0.0320,0.2000
P1Z,Z,115423,0.8850,0.5999,0.4923,0.0000,0.7070,3.0315,-6.9060,5.0876,0.2916,-0.1504,0.2132
P1Z,Z,115443,0.8828,0.5966,0.4928,0.0000,0.8299,3.3363,-7.1366,4.7493,0.2475,-0.2609,0.2220
P1Z,Z,115463,0.8873,0.5966,0.4942,0.0000,0.7919,3.6326,-7.3042,4.5152,0.2550,-0.3287,0.2392
P1Z,Z,115483,0.8835,0.5982,0.4894,0.0000,0.7717,3.7410,-7.6198,4.1685,0.2642,-0.3750,0.2490
P1Z,Z,115503,0.8839,0.5986,0.4871,0.0000,0.7116,3.9177,-7.8443,3.8955,0.2534,-0.3766,0.2541
P1Z,Z,115523,0.8850,0.5962,0.4617,0.0000,0.7858,3.9811,-7.9371,3.7949,0.2593,-0.3893,0.2655
P1Z,Z,115543,0.8846,0.5974,0.4923,0.0000,0.7717,4.1122,-8.0245,3.6320,0.3102,-0.3527,0.2714
P1Z,Z,115563,0.8861,0.5957,0.4928,0.0000,0.6915,4.1260,-8.1018,3.5105,0.3297,-0.2896,0.2737
P1Z,Z,115583,0.8850,0.5986,0.5143,0.0000,0.7093,4.1973,-8.0179,3.4392,0.3476,-0.2369,0.2539
P1Z,Z,115603,0.8846,0.5974,0.4981,0.0000,0.6919,4.1464,-7.9838,3.3105,0.3424,-0.2437,0.2117
P1Z,Z,115623,0.8839,0.5974,0.4914,0.0000,0.7760,3.8620,-7.8066,3.2135,0.3287,-0.2435,0.1494
P1Z,Z,115643,0.8843,0.6036,0.5086,0.0000,0.7558,3.4297,-7.6850,3.0608,0.3156,-0.2305,0.0983
P1Z,Z,115663,0.8761,0.6070,0.5459,0.0143,0.6656,3.2435,-7.7706,2.9135,0.2590,-0.2249,0.0133
P1Z,Z,115683,0.8604,0.6099,0.5756,0.0398,0.7013,3.0010,-8.0012,2.9297,0.1575,-0.2986,0.0209
P1Z,Z,115703,0.8376,0.6211,0.5837,0.0319,0.6469,2.6429,-8.1946,2.7740,-0.0301,-0.3569,0.1179
P1Z,Z,115723,0.8067,0.6103,0.5861,0.0364,0.6065,2.7381,-8.0856,2.6914,-0.1962,-0.3403,0.2878
P1Z,Z,115743,0.7503,0.5986,0.5856,0.0526,0.5051,3.1075,-8.1820,2.5962,-0.3748,-0.4354,0.5048
P1Z,Z,115763,0.6891,0.5891,0.5856,0.0514,0.5408,3.0602,-8.4418,2.1352,-0.6320,-0.5963,0.6147
P1Z,Z,115783,0.6101,0.5820,0.5980,0.0668,0.5051,2.8183,-8.7173,1.7526,-1.0082,-0.7128,0.6804
P1Z,Z,115803,0.5403,0.5558,0.5971,0.0969,0.4905,2.2962,-8.1030,1.3238,-1.2530,-0.7825,0.7069
P1Z,Z,115823,0.4724,0.5097,0.5818,0.1010,0.4398,1.6627,-7.6204,1.0574,-1.3452,-0.7973,0.6676
P1Z,Z,115843,0.4187,0.4549,0.5559,0.1036,0.3619,1.1502,-8.2341,0.3646,-1.4985,-0.7922,0.6418
P1Z,Z,115863,0.3728,0.3917,0.5100,0.1205,0.3502,0.7191,-8.9771,-0.0120,-2.0264,-0.8154,0.7738
P1Z,Z,115883,0.3355,0.3140,0.4751,0.1427,0.2455,-0.0413,-8.2353,0.2407,-2.6437,-0.6715,1.0730
P1Z,Z,115903,0.2884,0.2446,0.4493,0.1475,0.3323,-0.0054,-7.5102,1.3035,-3.0727,-0.3451,1.3729
P1Z,Z,115923,0.2459,0.1914,0.4081,0.1584,0.1929,1.4604,-6.9515,2.6812,-3.3401,-0.1198,1.4806
P1Z,Z,115943,0.2187,0.1552,0.3885,0.1723,0.1718,3.2039,-5.6229,4.0626,-3.6035,-0.0923,1.7064
P1Z,Z,115963,0.2011,0.1195,0.3617,0.1539,0.1183,4.5589,-4.2428,6.0780,-3.7315,-0.0412,1.9450
P1Z,Z,115983,0.1799,0.1020,0.3311,0.1412,0.0972,6.2977,-2.9183,7.5263,-3.6384,-0.0552,2.0326
P1Z,Z,116003,0.1653,0.0808,0.2928,0.1239,0.0911,8.4059,-1.0155,9.0879,-3.3600,-0.7077,2.0654
P1Z,Z,116023,0.1515,0.0659,0.2593,0.1074,0.0765,8.8418,1.0808,10.4447,-2.9617,-1.3336,1.8957
P1Z,Z,116043,0.1340,0.0513,0.2235,0.0612,0.0000,7.3431,2.5998,10.5070,-2.1578,-1.1711,1.3191
P1Z,Z,116063,0.1299,0.0401,0.2120,0.0586,0.0000,6.7366,2.7166,10.3686,-1.3109,-0.3059,0.5917
P1Z,Z,116083,0.1280,0.0364,0.2110,0.0702,0.0681,8.4113,2.5363,10.6620,-0.8856,-0.0834,0.2928
P1Z,Z,116103,0.1303,0.0368,0.2048,0.0766,0.0183,8.7071,2.2489,10.6303,-0.7099,-0.6057,0.3754
P1Z,Z,116123,0.1269,0.0314,0.2053,0.0556,0.0000,7.5042,2.3405,10.4022,-0.8607,-0.9590,0.4214
P1Z,Z,116143,0.1235,0.0235,0.2292,0.0728,0.0000,5.9624,2.1196,9.7040,-0.7818,-0.7316,0.1557
P1Z,Z,116163,0.1220,0.0201,0.1971,0.0514,0.0000,5.7025,2.1992,9.6603,-0.5569,-0.5061,-0.0021
P1Z,Z,116183,0.1202,0.0143,0.1943,0.0578,0.0300,5.2906,1.4987,9.4154,-0.4509,-0.6226,-0.0207
P1Z,Z,116203,0.1176,0.0110,0.1881,0.0582,0.0502,4.5032,1.1903,8.8244,-0.4876,-0.7863,0.0354
P1Z,Z,116223,0.1187,0.0077,0.2120,0.0717,0.0000,3.7320,1.0957,8.7209,-0.5794,-0.8244,0.2288
P1Z,Z,116243,0.1232,0.0060,0.2129,0.0601,0.0000,5.8295,1.7561,11.5679,-0.2593,-1.0055,0.1540
P1Z,Z,116263,0.1314,0.0110,0.1962,0.0803,0.0000,4.7793,0.1509,10.8303,0.1431,-1.3973,-0.0180
P1Z,Z,116283,0.1452,0.0131,0.1967,0.0409,0.0000,2.9177,-1.0071,9.7627,0.0051,-1.2930,0.1263
P1Z,Z,116303,0.1623,0.0247,0.1785,0.0541,0.0469,2.5501,-1.5526,9.3424,-0.4626,-0.9766,0.5680
P1Z,Z,116323,0.1948,0.0700,0.2000,0.0567,0.0000,3.1620,-0.8820,9.3172,-0.7438,-0.6281,0.6352
P1Z,Z,116343,0.2340,0.1502,0.2263,0.0721,0.0620,3.6704,-0.0964,8.7161,-0.7382,-0.4900,0.5911
P1Z,Z,116363,0.2661,0.2387,0.2125,0.0563,0.0263,3.5189,0.0413,8.5047,-0.5822,-0.5427,0.6051
P1Z,Z,116383,0.2914,0.3069,0.2225,0.0638,0.0239,3.6578,0.2569,9.4998,-0.4525,-0.8243,0.4864
P1Z,Z,116403,0.3060,0.3418,0.2421,0.0469,0.0314,2.9662,0.3515,9.5962,-0.6374,-1.1623,0.5432
P1Z,Z,116423,0.3112,0.3501,0.2397,0.0649,0.0000,2.1453,-0.0126,9.1310,-1.1792,-1.4144,1.1599
P1Z,Z,116443,0.3108,0.3805,0.2402,0.0353,0.0000,1.1071,0.6347,8.3658,-1.4675,-1.1630,1.1954
P1Z,Z,116463,0.3015,0.4191,0.2163,0.0368,0.0080,0.5886,2.5734,8.4137,-1.3022,-0.6732,0.9194
P1Z,Z,116483,0.3022,0.4449,0.2153,0.0135,0.0202,1.3496,3.6482,9.6789,-0.7789,-0.4792,1.0019
