timestamp,flex1,flex2,flex3,flex4,flex5,ax,ay,az,gx,gy,gz,target
580583,0.8468,0.1186,0.0,0.0,0.9029,-0.2667700226426009,-0.5947586489152535,-0.05697897917586534,0.03921490129649348,0.018860368627508856,-0.009944231296961936,W
580603,0.8491,0.1169,0.0,0.0,0.8971,-0.2658474604529794,-0.5894446996454782,-0.07339339039800294,0.03801952951438591,0.010084872365547408,-0.03679855085637953,W
580623,0.8479,0.1216,0.0,0.0,0.8613,-0.3177569596556808,-0.5737302971356356,-0.06871792257668964,0.06760498112154824,0.007127911668582138,-0.047034502257951256,W
580643,0.8449,0.1181,0.0,0.0,0.868,-0.3269825815518955,-0.5774314524636115,-0.09325156017669926,0.07228685393480289,-0.007561505987309852,-0.042097160993663715,W
580663,0.8468,0.1169,0.0,0.0,0.8622,-0.3597642913564451,-0.5931665318188616,-0.11434143922015019,0.04847903260782714,0.02401120338996449,-0.03005486522710874,W
580683,0.846,0.1069,0.0,0.0,0.868,-0.3457720981471861,-0.578796124260519,-0.11703109006359387,0.04270140232764056,0.05758701517486047,-0.01367734298459398,W
580703,0.8472,0.116,0.0,0.0,0.8675,-0.3218162332900153,-0.6017060689722364,-0.11479390384801921,0.051965533638974215,0.01866959696964013,-0.014761149603583924,W
580723,0.846,0.122,0.0,0.0,0.824,-0.36656049948665664,-0.5572508513457086,-0.13374714437097748,0.029950769985159827,-0.014333899841649669,-0.017651300587557116,W
580743,0.8487,0.1199,0.0,0.0,0.9387,-0.4103822034936765,-0.5719934421213899,-0.15136812793409915,0.045291374522206954,0.001213990274651596,-0.0021167390487012053,W
580763,0.8476,0.1194,0.0,0.0,0.8594,-0.3505386694602304,-0.5726137474836206,-0.1552643511185269,0.04080873033930357,-0.0031737578563291284,0.011491055167505912,W
580783,0.8468,0.1225,0.0,0.0,0.8871,-0.37117331043476404,-0.5583674009977238,-0.1372160398513067,0.06043275042890282,-0.00555840357968822,0.017512203050783395,W
580803,0.8472,0.116,0.0,0.0,0.8317,-0.33654647625097145,-0.5667828770786527,-0.1284683903791721,0.04987363302028597,0.026205077455454855,0.024015042764723084,W
580823,0.8479,0.119,0.0,0.0,0.8579,-0.309484652022075,-0.5802848571298723,-0.11808684086195494,0.04369754547939687,-0.007179962671572401,0.02859111515601397,W
580843,0.8487,0.119,0.0,0.0,0.8771,-0.3437424613300189,-0.5870875392690018,-0.12351641639638329,0.012020193253546297,-0.0398973019960591,0.01269528474416141,W
580863,0.8483,0.1233,0.0,0.0,0.8747,-0.3499851321464575,-0.5629576606782303,-0.10589543283326162,-0.0007304390889344282,-0.0031737578563291284,0.014742475024475756,W
580883,0.8498,0.1203,0.0,0.0,0.7862,-0.35035415702230616,-0.5599801949395236,-0.09189416629309217,0.03204267060384807,0.0216265576666054,0.016789665304790098,W
580903,0.8464,0.1199,0.0,0.0,0.8904,-0.3197865964728481,-0.5716212589040512,-0.07550489199472508,0.059237378646795256,0.04451915661085266,0.023051659103398684,W
580923,0.8464,0.119,0.0,0.0,0.889,-0.2929092846818759,-0.6022023132620209,-0.08362411837259712,0.039115286981317846,-0.01395235652591221,0.0160671275587968,W
580943,0.8434,0.122,0.0,0.0,0.8116,-0.3588417291668236,-0.5638260881853533,-0.08995862316276355,0.013514407981180759,-0.02988178995795093,0.01666924234712455,W
580963,0.8464,0.122,0.0,0.0,0.9349,-0.3754170965070227,-0.5511925356412564,-0.1012451019357188,0.04359793116422123,0.014854163812265586,0.009443864887191566,W
580983,0.8544,0.1259,0.0,0.0,0.8876,-0.3317799049379272,-0.5748261699422431,-0.09129088012260014,0.08583440079868866,0.05224540875453611,0.02449673459538528,W
581003,0.8472,0.1229,0.0,0.0,0.89,-0.30028978219884767,-0.5849785010374174,-0.07985357980702187,0.08394172881035167,0.00293093519547014,0.020041085161759942,W
581023,0.8483,0.1246,0.0,0.0,0.9077,-0.34245087426454884,-0.5947586489152535,-0.08905369390702549,0.051666690693447315,-0.02396786856402039,0.010045979675519316,W
581043,0.8491,0.1264,0.0,0.0,0.8264,-0.3614249032977638,-0.5543974466794478,-0.11117418682506697,-0.0016269679255151096,0.013137218891447044,-0.000671663556714609,W
581063,0.8479,0.1268,0.0,0.0,0.8584,-0.33820708819229006,-0.5394274106042821,-0.08995862316276355,0.06730613817602134,0.04995614886011138,-0.0035618145406878013,W
581083,0.8476,0.1268,0.0,0.0,0.7891,-0.3041337913222705,-0.5644257167021763,-0.09264827400620722,0.09997963355362821,0.027826636547339034,-0.02186610410585136,W
581103,0.8502,0.129,0.0,0.0,0.8909,-0.31904854672115085,-0.6061515907348896,-0.10861022060047579,0.1132283374719871,0.020386541890458673,-0.04944296141126224,W
581123,0.8476,0.1277,0.0,0.0,0.9301,-0.3321489298137758,-0.5815254678543336,-0.12185737942753018,0.062126193786888544,0.014663392154396859,-0.009462539466299739,W
581143,0.8487,0.1385,0.0,0.0,0.8675,-0.3282741686173656,-0.5806570403472109,-0.15692338808738004,0.045092145891855694,0.013709533865053225,0.0023389103849241325,W
581163,0.8457,0.1333,0.0,0.0,0.759,-0.3492470823947604,-0.5089704173187587,-0.15481188649065789,0.05953622159232215,-0.004032230316738399,0.02064319995008769,W
581183,0.846,0.1363,0.0,0.0,0.8761,-0.340052212571533,-0.5896928217903702,-0.14322376463245662,0.12468398371718462,-0.009659994223865851,0.022088275442074288,W
581203,0.8491,0.1367,0.0,0.0,0.7996,-0.38608806583364436,-0.6330314897648829,-0.12004752091605406,0.08513710059245924,-0.005939946895425672,-0.000310394683717962,W
581223,0.8502,0.1346,0.0,0.0,0.8986,-0.31686514953904676,-0.6091290564735962,-0.13751768293655273,0.006441791603710981,-0.011186167486815666,-0.0012737783450423581,W
581243,0.8464,0.1359,0.0,0.0,0.7886,-0.3855345285198716,-0.5386830441696053,-0.15166977101934517,-0.02981781912021859,-0.043331191837696195,0.0065537139032183726,W
581263,0.8483,0.1419,0.0,0.0,0.8254,-0.3930687864017802,-0.5381867998798209,-0.1429221215472106,0.03523032868946826,0.0024540060507983216,0.031601689097652715,W
581283,0.8498,0.1376,0.0,0.0,0.9263,-0.3152045375977281,-0.5801607960574264,-0.12668366879146653,0.06760498112154824,0.02658662077119231,0.02546011825670968,W
581303,0.8483,0.1376,0.0,0.0,0.8178,-0.31446648784603093,-0.5804089182023185,-0.11388897459228114,0.06969688174023649,-0.012712340749765488,0.014260783193813556,W
581323,0.8506,0.1385,0.0,0.0,0.8565,-0.32107818353831813,-0.5989767253784218,-0.10215003119145687,0.04728366082571957,-0.00861075010558785,0.00811921235287052,W
581343,0.8514,0.1359,0.0,0.0,0.813,-0.35552050528418633,-0.5579952177803855,-0.10290413890457191,0.018793966685489185,-0.017863175512221115,0.014622052066810205,W
581363,0.8514,0.1367,0.0,0.0,0.8231,-0.3516457440877762,-0.5579952177803855,-0.11026925756932891,0.04429523137045065,-0.007847663474112945,0.0017367955965963834,W
581383,0.8502,0.1354,0.0,0.0,0.8259,-0.32273879547963674,-0.5646738388470683,-0.12771428266605708,0.045988674728436374,-0.005844561066491305,0.0033022940462485327,W
581403,0.851,0.1372,0.0,0.0,0.8235,-0.3523837938394733,-0.5728618696285126,-0.1299766058054022,0.07278492551068104,0.011706431457431589,-0.001394201302707907,W
581423,0.8518,0.1359,0.0,0.0,0.7925,-0.3258755069243498,-0.5945105267703615,-0.14277130000458757,0.037222614992980865,0.02506044750824249,-0.011028037915951885,W
581443,0.8537,0.1363,0.0,0.0,0.802,-0.3545979430945649,-0.560476439229308,-0.16174967745131635,0.02845655525752537,-0.01652777390714003,-0.004043506371350002,W
581463,0.8514,0.1376,0.0,0.0,0.771,-0.3625012258523222,-0.5958751985672687,-0.1622021420791854,0.03971297287237164,-0.004795316948213309,0.010768517421512615,W
581483,0.8479,0.1359,0.0,0.0,0.8063,-0.3533063560290949,-0.6014579468273444,-0.15541517266114993,0.008434077907223593,-0.03617725466761892,0.010768517421512615,W
581503,0.8529,0.1354,0.0,0.0,0.7738,-0.3881177026508117,-0.566162571716422,-0.1281667472939261,-0.012385313964483223,0.005220195089894865,0.02630307896036853,W
581523,0.8506,0.1354,0.0,0.0,0.8278,-0.30084331951262056,-0.5708768924693748,-0.09460895406030637,-0.013082614170712638,0.028398951520945216,0.025821387129706327,W
581543,0.851,0.1346,0.0,0.0,0.7853,-0.3052408659498162,-0.5737302971356356,-0.06781299332095156,-0.011389170812726916,-0.036081868838684555,0.009082596014194918,W
581563,0.8514,0.1342,0.0,0.0,0.8713,-0.34632563546095907,-0.5537978181626249,-0.051272897479961464,-0.007803055466404211,-0.05410979050727927,-0.00837873284730979,W
581583,0.851,0.1342,0.0,0.0,0.8369,-0.35441343065664066,-0.5948827099876998,-0.04750235891438621,0.016602451751625315,-0.00813382096091603,-0.006692811439992096,W
581603,0.8495,0.1342,0.0,0.0,0.77,-0.38479647876817435,-0.5994729696682063,-0.041192991047990284,0.019391652576542972,0.0019770769061265066,-0.005006890032674398,W
581623,0.8487,0.1398,0.0,0.0,0.8747,-0.35755014210135355,-0.5632057828231227,-0.025231044453721714,0.059237378646795256,0.018574211140705767,-0.004043506371350002,W
581643,0.8487,0.1359,0.0,0.0,0.8011,-0.39051636434382747,-0.5765630249564888,-0.062408554710293704,0.07039418194646589,-0.00937383673706276,-0.0025984308793634055,W
581663,0.8502,0.1333,0.0,0.0,0.8732,-0.3967590351602661,-0.5884522110659088,-0.11434143922015019,0.026763111899539647,-0.004795316948213309,-0.011028037915951885,W
581683,0.8491,0.1329,0.0,0.0,0.8708,-0.4083525666765092,-0.5333690948998299,-0.13088153506114028,0.009629449689331162,0.015521864614806135,-0.011028037915951885,W
581703,0.8514,0.1337,0.0,0.0,0.8646,-0.4122273278729194,-0.5470985202505343,-0.14126308457835748,0.05077016185686664,0.017429581193493405,-0.002718853837028954,W
581723,0.8476,0.1333,0.0,0.0,0.8226,-0.3928842739638559,-0.590437188225047,-0.13827179064966777,0.029552312724457304,0.013995691351856316,0.014622052066810205,W
581743,0.8495,0.1342,0.0,0.0,0.8498,-0.375601608944947,-0.5812773457094416,-0.11479390384801921,0.002457218996685749,-0.007466120158375486,0.022810813188067585,W
581763,0.8487,0.1346,0.0,0.0,0.8302,-0.4030324580496921,-0.5924221653841848,-0.0967204556570285,-0.028722061653286664,-0.005081474435016401,0.020041085161759942,W
581783,0.854,0.1333,0.0,0.0,0.8565,-0.3816597673234614,-0.5400477159665128,-0.06150362545455564,-0.013182228485888271,-0.01090001000001258,0.02967492177500392,W
581803,0.8495,0.1342,0.0,0.0,0.9163,-0.3606868535460666,-0.5678994267306677,-0.03877984636602212,0.03971297287237164,-0.012903112407634214,0.04653413584818088,W
581823,0.8502,0.1342,0.0,0.0,0.9143,-0.354044405780792,-0.5865912949792169,-0.054892614502913696,0.031146141767267398,-0.009850765881734579,0.035455223742950306,W
581843,0.8491,0.1324,0.0,0.0,0.8852,-0.3523837938394733,-0.5763149028115964,-0.062408554710293704,0.021682781825582476,-0.008896907592390941,0.023412927976395336,W
581863,0.8479,0.135,0.0,0.0,0.8713,-0.3717268477485368,-0.5764389638840426,-0.05728062226111136,0.03333765670113127,-0.03846651456204365,0.026905193748696276,W
581883,0.8479,0.1342,0.0,0.0,0.8785,-0.3684056238658996,-0.560476439229308,-0.0488597527979933,0.08264674271306847,-0.007179962671572401,0.031119997266990516,W
581903,0.8479,0.1359,0.0,0.0,0.8517,-0.3240303825451068,-0.576687086028935,-0.06436923476439284,0.09579583231625173,0.006174053379238501,0.030758728393993868,W
581923,0.8487,0.1337,0.0,0.0,0.9344,-0.33085734274830575,-0.5914296768046159,-0.08136179523325197,0.06810305269742639,-0.027020215089920023,0.012815707701826958,W
581943,0.8479,0.1337,0.0,0.0,0.9206,-0.4021098958600707,-0.5645497777746226,-0.11567369617998677,0.05007286165063723,-0.0349372388914722,0.02377419684939198,W
581963,0.8491,0.1346,0.0,0.0,0.9201,-0.3521992814015491,-0.5693881596000211,-0.10604625437588462,0.09470007484931979,-0.00641687604009749,0.038706643599920154,W
581983,0.8491,0.1398,0.0,0.0,0.9186,-0.38202879219930996,-0.5764389638840426,-0.09913360033899667,0.10784916445250303,-0.01547852978886203,0.03449184008162591,W
582003,0.8502,0.1337,0.0,0.0,0.9019,-0.38202879219930996,-0.6052831632277664,-0.10634789746113064,0.0778652555846382,-0.00851536427665349,0.04207848641455554,W
582023,0.8502,0.1324,0.0,0.0,0.9306,-0.3334097648062584,-0.5246848198286013,-0.10529214666276958,0.047881346716773354,-0.01929396294623657,0.04111510275323114,W
582043,0.8472,0.1342,0.0,0.0,0.8971,-0.34208184938870023,-0.552805329583056,-0.10891186368572181,0.070095339000939,-0.038752672048846734,0.04063341092256895,W
582063,0.8483,0.1333,0.0,0.0,0.9158,-0.352752818715322,-0.5594839506497388,-0.11026925756932891,0.07716795537840877,-0.01023230919747203,0.062189120344702344,W
582083,0.8472,0.1337,0.0,0.0,0.8283,-0.31077623908754504,-0.6254637643456693,-0.10770529134473773,0.07358184003208608,-0.026638671774182564,0.055325011757766,W
582103,0.8476,0.1367,0.0,0.0,0.932,-0.3023194190160149,-0.5842341346027405,-0.12743777650458155,0.013115950720478236,-0.028451002523935478,0.030758728393993868,W
582123,0.8483,0.1329,0.0,0.0,0.8785,-0.30985367689792354,-0.5827660785787949,-0.1326913935726164,0.019192423946191712,-0.05372824719154182,0.025941810087371876,W
582143,0.8445,0.1311,0.0,0.0,0.8771,-0.33451683943380417,-0.5945105267703615,-0.10499050357752356,0.07148993941339783,-0.022823238616808024,0.009925556717853766,W
582163,0.8491,0.1229,0.0,0.0,0.8613,-0.3385761130681387,-0.5971158092917299,-0.09883195725375064,0.05276244816037926,-0.007466120158375486,-0.000671663556714609,W
582183,0.8479,0.1298,0.0,0.0,0.9354,-0.33599293893719856,-0.5847303788925254,-0.09928442188161968,0.029950769985159827,0.009417171563006864,-0.044505620146974706,W
582203,0.8498,0.1281,0.0,0.0,0.8594,-0.3406057498853059,-0.5381867998798209,-0.08287001065948207,0.026563883269188383,-0.013570813210174759,-0.04161546916300151,W
582223,0.8495,0.1272,0.0,0.0,0.8713,-0.40798354180066065,-0.5332450338273838,-0.08784712156604141,0.0548543487790675,-0.01023230919747203,-0.028850635650453243,W
582243,0.8476,0.1216,0.0,0.0,0.8336,-0.3930687864017802,-0.5964955039294992,-0.09310073863407627,0.07836332716051635,0.05119616463625811,-0.01247311340793848,W
582263,0.8491,0.1229,0.0,0.0,0.8097,-0.343188924016246,-0.6083846900389197,-0.10830857751522978,0.03353688533148254,0.0005462894721110517,-0.0009125094720457069,W
582283,0.8506,0.1203,0.0,0.0,0.8952,-0.3798146429442184,-0.5967436260743917,-0.13525535979720757,-0.01786410129914291,-0.05410979050727927,-0.000430817641383511,W
582303,0.8491,0.1177,0.0,0.0,0.7791,-0.3853500160819473,-0.5529293906555022,-0.11102336528244397,-0.0022246538165688902,-0.021583222840661297,-0.0018758931333701073,W
582323,0.8491,0.1181,0.0,0.0,0.8044,-0.3998957466049791,-0.5801607960574264,-0.09460895406030637,0.022579310662163156,0.011706431457431589,0.0028206022155863324,W
582343,0.8498,0.113,0.0,0.0,0.7858,-0.3448495359575647,-0.5744539867249044,-0.0892045154496485,0.011621735992843777,0.04327914083470594,0.0031818710885829836,W
582363,0.8483,0.1194,0.0,0.0,0.9029,-0.32310782035548535,-0.566162571716422,-0.08739465693817237,-0.008699584302984885,-0.019961663748777114,0.0004121430622753403,W
582383,0.8502,0.1138,0.0,0.0,0.8106,-0.3980506222257362,-0.590437188225047,-0.05803472997422641,0.035130714374292625,-0.04533429424531782,0.0018572185542619366,W
582403,0.8506,0.1112,0.0,0.0,0.8144,-0.3606868535460666,-0.5526812685106097,-0.04418428497667999,0.04837941829265151,0.014281848838659406,0.008841750098863817,W
582423,0.8498,0.1108,0.0,0.0,0.8187,-0.3581036794151265,-0.5946345878428073,-0.04418428497667999,0.05037170459616412,0.007318683326450864,0.005710753199559525,W
582443,0.8495,0.1138,0.0,0.0,0.7862,-0.34189733695077595,-0.5816495289267798,-0.040589704877498245,0.015207851339166481,-0.004509159461410217,-0.012954805238600677,W
582463,0.8498,0.1117,0.0,0.0,0.8087,-0.39140817446046156,-0.5480910088301032,-0.028247475306181918,0.02885501251822789,-0.04008807365392783,-0.020059759740868113,W
582483,0.8518,0.1117,0.0,0.0,0.8383,-0.45272780799730195,-0.5638260881853533,-0.041494634133236306,0.06322195125382048,-0.008992293421325308,-0.012232267492607383,W
582503,0.8487,0.1134,0.0,0.0,0.9019,-0.4225292723236925,-0.573358113918297,-0.061805268539801665,0.07925985599709702,0.0268727782579954,0.0020980644695930343,W
582523,0.8495,0.1138,0.0,0.0,0.8125,-0.3917771993363101,-0.5880800278485706,-0.08754547848079539,0.0690991958491827,-0.015573915617796391,0.007517097564542772,W
582543,0.8495,0.1147,0.0,0.0,0.8073,-0.45017538593934925,-0.5831382617961332,-0.09041108779063259,0.07607219791147685,-0.0398973019960591,0.009082596014194918,W
582563,0.8502,0.1138,0.0,0.0,0.7796,-0.4026634331738435,-0.5822698342890105,-0.09026026624800958,0.06401886577522553,-0.025017112682298386,0.04111510275323114,W
582583,0.8491,0.1181,0.0,0.0,0.8073,-0.4293562325268914,-0.5667828770786527,-0.11102336528244397,0.04290063095799182,-0.016146230591402574,0.050387670493478476,W
582603,0.854,0.116,0.0,0.0,0.7724,-0.3737564845657041,-0.547966947757657,-0.12608038262097446,0.04688520356501705,-0.006321490211163124,0.05255528373145837,W
582623,0.8491,0.1143,0.0,0.0,0.7905,-0.35533599284626205,-0.5612208056639846,-0.13148482123163233,0.07308376845620793,-0.025684813484838934,0.05002640162048182,W
582643,0.8491,0.1147,0.0,0.0,0.7772,-0.387748677774963,-0.5848544399649712,-0.13797014756442177,0.07507605475972054,-0.04867279825802055,0.046895404721177536,W
582663,0.8491,0.113,0.0,0.0,0.8302,-0.3597642913564451,-0.5799126739125341,-0.12743777650458155,0.02765964073612032,-0.007561505987309852,0.05074893936647512,W
582683,0.8487,0.1134,0.0,0.0,0.8847,-0.30431830376019475,-0.578796124260519,-0.1323897504873704,-0.006806912314647902,-0.024158640221889113,0.039308758388247905,W
582703,0.8491,0.1125,0.0,0.0,0.7963,-0.3120678261530151,-0.5671550602959909,-0.10634789746113064,0.0027560619422126427,-0.029500246642213474,0.032444649801311565,W
582723,0.8483,0.1117,0.0,0.0,0.8125,-0.3363619638130471,-0.5560102406212474,-0.07459996273898702,0.048279803977475874,-0.012140025776159302,0.028109423325351775,W
582743,0.8483,0.1117,0.0,0.0,0.8082,-0.29992075732299905,-0.5948827099876998,-0.06736052869308254,0.04190448780623551,-0.013284655723371666,0.014862897982141304,W
582763,0.8556,0.1125,0.0,0.0,0.8369,-0.3330407399304099,-0.5986045421610836,-0.06602827173324595,-0.0018261965558663698,-0.022346309472136207,0.006072022072556176,W
582783,0.8487,0.1112,0.0,0.0,0.8269,-0.34721744557759315,-0.5645497777746226,-0.06602827173324595,0.0015606901601050746,-0.0349372388914722,-0.0009125094720457069,W
582803,0.8464,0.1121,0.0,0.0,0.8426,-0.36379281291779225,-0.5754464753044737,-0.054289328332421664,0.03931451561166911,-0.04008807365392783,0.0016163726389308343,W
582823,0.8491,0.1121,0.0,0.0,0.7829,-0.3765241711345685,-0.565294144209299,-0.05984458848570254,0.040709116024127946,-0.024921726853364023,0.0008938348929375362,W
582843,0.8495,0.1143,0.0,0.0,0.8436,-0.36160941573568806,-0.5930424707464155,-0.051272897479961464,0.04080873033930357,-0.02349093941934857,0.0018572185542619366,W
582863,0.8498,0.1125,0.0,0.0,0.8971,-0.37006623580721826,-0.5570027292008166,-0.05924130231521049,0.0399122015027229,-0.005939946895425672,0.0066741368608839256,W
582883,0.8472,0.1117,0.0,0.0,0.8001,-0.38959380215420597,-0.5454857263087347,-0.04569250040291009,0.10954260781048876,0.013900305522921952,0.010768517421512615,W
582903,0.8464,0.1095,0.0,0.0,0.8603,-0.4041395326772378,-0.5499519249167951,-0.055621585292258253,0.15436904963952258,0.027254321573732854,-0.0052477359480054995,W
582923,0.8476,0.1108,0.0,0.0,0.8417,-0.3275361188656684,-0.6019541911171289,-0.059392123857833504,0.15138062018425366,0.037365219440775393,0.00787836643753942,W
582943,0.8449,0.1104,0.0,0.0,0.9029,-0.3658224497349595,-0.6259600086354538,-0.0831716537447281,0.05644817782187759,-0.00555840357968822,-0.009944231296961936,W
582963,0.8441,0.1125,0.0,0.0,0.7925,-0.417578188572724,-0.5628335996057844,-0.08136179523325197,0.0321422849190237,-0.00555840357968822,-0.001153355387376809,W
582983,0.8441,0.1212,0.0,0.0,0.89,-0.39509842321894745,-0.5565064849110318,-0.09026026624800958,0.06999572468576337,-0.016241616420336936,0.00462694658056958,W
583003,0.8453,0.1099,0.0,0.0,0.9497,-0.4065074422972663,-0.5674031824408834,-0.11944423474556203,0.07836332716051635,-0.027783301721394926,0.009323441929526017,W
583023,0.8438,0.113,0.0,0.0,0.8909,-0.4021098958600707,-0.5956270764223766,-0.11494472539064221,0.06889996721883143,-0.016623159736074394,0.019198124458101096,W
583043,0.8464,0.1138,0.0,0.0,0.8713,-0.4197923378278155,-0.5860950506894325,-0.12065080708654612,0.003154519202915163,-0.01595545893353385,0.022449544315070936,W
583063,0.8445,0.1034,0.0,0.0,0.921,-0.3967590351602661,-0.541288326690974,-0.11672944697834783,-0.010592256291321874,-0.01090001000001258,0.0364186074042747,W
583083,0.8453,0.1121,0.0,0.0,0.8665,-0.4225292723236925,-0.5440176702847886,-0.0937040248045683,0.0672065238608457,-0.01938934877517094,0.050387670493478476,W
583103,0.8445,0.1173,0.0,0.0,0.8508,-0.4400272018535131,-0.5943864656979153,-0.11434143922015019,0.08673092963526932,0.007986384128991412,0.05327782147745167,W
583123,0.8434,0.1156,0.0,0.0,0.8809,-0.35570501772211066,-0.6029466796966978,-0.09837949262588162,0.03403495690736069,0.043088369176837206,0.05857643161473586,W
583143,0.8472,0.1125,0.0,0.0,0.8981,-0.3855345285198716,-0.5550177520416785,-0.10423639586440851,0.014410936817761438,0.0024540060507983216,0.03449184008162591,W
583163,0.8358,0.116,0.0,0.0,0.9139,-0.3728339223760826,-0.5799126739125341,-0.07671146433570918,0.032739970810077484,0.03106975473110739,0.03340803346263596,W
583183,0.8445,0.1138,0.0,0.0,0.813,-0.3372845260026686,-0.5751983531595813,-0.06720970715045953,0.004947576876076519,0.012183360602103406,0.04268060120288329,W
583203,0.8426,0.1143,0.0,0.0,0.9153,-0.3684056238658996,-0.5612208056639846,-0.08196508140374402,-0.009496498824389932,-0.057925223664653816,0.032203803885980466,W
583223,0.8449,0.1099,0.0,0.0,0.9005,-0.4221602474478439,-0.5674031824408834,-0.07640982125046314,-0.013082614170712638,-0.01595545893353385,0.015585435728134603,W
583243,0.8445,0.1181,0.0,0.0,0.8838,-0.39051636434382747,-0.5702565871071441,-0.06135280391193264,0.014311322502585804,0.04566378655806502,0.036779876277271355,W
583263,0.8483,0.1138,0.0,0.0,0.8828,-0.32679806911397125,-0.5796645517676416,-0.03727163093979203,0.0373222293081565,0.047189959821014836,0.03509395486995366,W
583283,0.846,0.1151,0.0,0.0,0.8513,-0.3251374571726526,-0.5988526643059756,-0.0473515373717632,0.009330606743804272,-0.031026419905163284,0.023412927976395336,W
583303,0.8472,0.1156,0.0,0.0,0.9038,-0.37080428555891537,-0.5900650050077084,-0.0533843990766836,-0.03380239172724382,-0.02186938032746439,0.02088404586541879,W
583323,0.843,0.113,0.0,0.0,0.9411,-0.3763396586966442,-0.5271660412775234,-0.06467087784963886,0.004449505300198365,0.01971884108791813,0.019198124458101096,W
583343,0.846,0.1125,0.0,0.0,0.8895,-0.340052212571533,-0.573358113918297,-0.04659742965864815,0.08274635702824411,0.020386541890458673,0.011370632209840362,W
583363,0.8479,0.1169,0.0,0.0,0.8947,-0.3621322009764736,-0.5768111471013808,-0.05323357753406059,0.08802591573255253,-0.014810828986321486,0.005710753199559525,W
583383,0.8468,0.116,0.0,0.0,0.9186,-0.3798146429442184,-0.5967436260743917,-0.057129800718488354,0.07388068297761297,-0.009659994223865851,0.016548819389459003,W
583403,0.8464,0.1212,0.0,0.0,0.8536,-0.409459641304055,-0.5691400374551291,-0.07188517497177284,0.04967440438993471,-0.0056537894086225796,0.022329121357405387,W
583423,0.8491,0.1143,0.0,0.0,0.8933,-0.3910699016576003,-0.5703806481795903,-0.06286101933816274,0.07965831325779954,0.02134040017980231,0.03148126613998716,W
583443,0.8487,0.1121,0.0,0.0,0.9158,-0.3492470823947604,-0.571249075686713,-0.08241754603161305,0.06601115207873814,-0.004127616145672765,0.02546011825670968,W
583463,0.8483,0.1147,0.0,0.0,0.8278,-0.397312572474039,-0.5698844038898055,-0.08950615853489452,0.062126193786888544,-0.050771286494576545,0.027868577410020672,W
583483,0.8502,0.1151,0.0,0.0,0.8766,-0.3962054978464932,-0.5594839506497388,-0.08875205082177948,0.06202657947171292,-0.00861075010558785,0.030999574309324967,W
583503,0.8483,0.1134,0.0,0.0,0.7805,-0.3661914746108081,-0.5667828770786527,-0.08558479842669627,0.06561269481803561,0.015617250443740495,0.04448694556786654,W
583523,0.8483,0.1156,0.0,0.0,0.899,-0.34832452020513893,-0.5882040889210168,-0.09913360033899667,0.06591153776356251,0.0036940218269450502,0.048460903170829676,W
583543,0.8502,0.1099,0.0,0.0,0.8312,-0.3286431934932142,-0.5827660785787949,-0.09777620645538958,0.035130714374292625,-0.007561505987309852,0.03413057120862926,W
583563,0.846,0.1151,0.0,0.0,0.8775,-0.35035415702230616,-0.5705047092520362,-0.08392576145784315,0.03433379985288758,-0.01853087631476166,0.033046764589639316,W
583583,0.8457,0.1134,0.0,0.0,0.8708,-0.35939526648059655,-0.570132526034698,-0.09460895406030637,0.013614022296356389,0.024678904192505034,0.04063341092256895,W
583603,0.8483,0.1156,0.0,0.0,0.7667,-0.3186795218453023,-0.5674031824408834,-0.06617909327586895,0.025667354432607706,0.02591891996865176,0.025339695299044132,W
583623,0.8457,0.1143,0.0,0.0,0.7992,-0.3417128245128517,-0.570132526034698,-0.06271019779553973,0.0181962807944354,0.018288053653902677,0.009323441929526017,W
583643,0.8476,0.1147,0.0,0.0,0.7681,-0.3220007457279396,-0.5690159763826829,-0.056677336090619326,0.039613358557196006,6.936032743923336e-05,0.004265677707572929,W
583663,0.846,0.1138,0.0,0.0,0.8742,-0.37006623580721826,-0.5935387150361999,-0.05758226534635738,0.05834084981021458,-0.02129706535385821,0.00811921235287052,W
583683,0.8472,0.1177,0.0,0.0,0.792,-0.3781540310028998,-0.5729859307009588,-0.08136179523325197,0.023973911074621983,-0.01309388406550294,0.006433290945552823,W
583703,0.8506,0.1169,0.0,0.0,0.7719,-0.40561563218063224,-0.5464782148883036,-0.08060768752013692,0.047084432195368314,-0.006989191013703668,0.0184755867121078,W
583723,0.8514,0.1156,0.0,0.0,0.8006,-0.37467904675532554,-0.5665347549337603,-0.06977367337505071,0.07198801098927599,-0.005081474435016401,0.02256996727273649,W
583743,0.8502,0.1143,0.0,0.0,0.7767,-0.37412550944155265,-0.6087568732562579,-0.0714327103439038,0.06680806660014318,-0.0226324669589393,0.016548819389459003,W
583763,0.8556,0.1151,0.0,0.0,0.7576,-0.3678520865521267,-0.5823938953614567,-0.06271019779553973,0.023675068129095093,-0.00851536427665349,0.005229061368897325,W
583783,0.8525,0.1117,0.0,0.0,0.7882,-0.36160941573568806,-0.559608011722185,-0.06286101933816274,0.009729064004506792,-0.027401758405657475,0.005590330241893976,W
583803,0.8521,0.1169,0.0,0.0,0.835,-0.3930687864017802,-0.5497038027719027,-0.059392123857833504,0.05206514795414985,0.00045090364317668867,0.019198124458101096,W
583823,0.8502,0.1169,0.0,0.0,0.8871,-0.35515148040833777,-0.5832623228685794,-0.06766217177832856,0.07607219791147685,0.016666494562018498,0.020041085161759942,W
583843,0.8518,0.1156,0.0,0.0,0.7858,-0.3597642913564451,-0.6035669850589284,-0.07761639359144723,0.0639192514600499,-0.008706135934522215,0.0184755867121078,W
583863,0.8479,0.1186,0.0,0.0,0.7925,-0.3984196471015848,-0.6046628578655359,-0.07925029363652984,0.012916722090126976,-0.0035553011720665805,0.007155828691546121,W
583883,0.8525,0.1143,0.0,0.0,0.8125,-0.3562585550358835,-0.5572508513457086,-0.09144170166522315,-0.013879528692117685,-0.0037460728299353063,0.0037839858769107286,W
583903,0.8502,0.1134,0.0,0.0,0.7776,-0.3881177026508117,-0.5672791213684372,-0.08226672448899003,0.03752145793850776,0.015903407930543588,0.008841750098863817,W
583923,0.8506,0.1173,0.0,0.0,0.8689,-0.34337343645417034,-0.5942624046254691,-0.07098024571603477,0.05565126330047255,0.01781112450923086,0.02112489178074989,W
583943,0.8514,0.1194,0.0,0.0,0.7614,-0.36231671341439786,-0.5690159763826829,-0.06871792257668964,0.03244112786455059,-0.05172514478392018,0.0006529889776064383,W
583963,0.8483,0.1173,0.0,0.0,0.8642,-0.3971280600361147,-0.5891965775005857,-0.06512334247750788,0.012418650514248822,0.007795612471122682,-0.001394201302707907,W
583983,0.8506,0.1134,0.0,0.0,0.8847,-0.3632392756040193,-0.5462300927434113,-0.05999541002832554,0.008932149483101746,0.011324888141694137,0.006433290945552823,W
584003,0.8506,0.1177,0.0,0.0,0.7585,-0.37301843481400687,-0.5637020271129071,-0.030786304607002588,0.06830228132777766,0.015521864614806135,0.0006529889776064383,W
584023,0.8491,0.1151,0.0,0.0,0.8331,-0.3499851321464575,-0.5727378085560664,-0.04403346343405698,0.07278492551068104,-0.003650687001000947,0.00017129714694423813,W
584043,0.8518,0.1151,0.0,0.0,0.8321,-0.3470329331396689,-0.6014579468273444,-0.05157454056520748,0.04001181581789853,-0.03932498702245291,-0.0030801227100256054,W
584063,0.8518,0.1169,0.0,0.0,0.9258,-0.40743000448688776,-0.5852266231823098,-0.06751135023570555,0.01371363661153202,-0.030072561615819664,0.0007734119352719872,W
584083,0.8506,0.1181,0.0,0.0,0.8651,-0.443163913298226,-0.5394274106042821,-0.07022613800291973,0.05883892138609273,0.014281848838659406,0.010045979675519316,W
584103,0.8533,0.1164,0.0,0.0,0.857,-0.3363619638130471,-0.5873356614138938,-0.06705888560783652,0.0807540707247315,-0.005081474435016401,0.02907280698667617,W
584123,0.8518,0.119,0.0,0.0,0.8613,-0.40487758242893507,-0.5905612492974932,-0.08498151225620422,0.059436607277146516,-0.06021448355907854,0.015224166855137954,W
584143,0.8518,0.1177,0.0,0.0,0.7886,-0.40044928391875195,-0.5999692139579907,-0.08241754603161305,0.03194305628867244,-0.015001600644190214,0.027266462621692925,W
584163,0.851,0.116,0.0,0.0,0.8685,-0.3621322009764736,-0.5700084649622518,-0.06301184088078574,0.026763111899539647,-0.0056537894086225796,0.036779876277271355,W
584183,0.8529,0.1177,0.0,0.0,0.8589,-0.3928842739638559,-0.5576230345630472,-0.05622487146275029,0.041107573284830466,-0.04390350681130237,0.039429181345913444,W
584203,0.8518,0.1177,0.0,0.0,0.8943,-0.37852305587874835,-0.5731099917734049,-0.05459097141766768,0.06053236474407846,-0.013666199039109124,0.04834048021316412,W
584223,0.8514,0.1164,0.0,0.0,0.8718,-0.34614112302303474,-0.5814014067818873,-0.03138959077749463,0.07288453982585666,0.007414069155385227,0.044125676694869886,W
584243,0.8518,0.1086,0.0,0.0,0.9014,-0.3203401337866209,-0.5942624046254691,-0.0503679682242234,0.028356940942349734,-0.020915522038120752,0.023292505018729787,W
584263,0.8514,0.1151,0.0,0.0,0.8986,-0.3748635591932499,-0.5743299256524587,-0.06781299332095156,-0.004017711489730246,0.00016474615637359635,0.011009363336843714,W
584283,0.8487,0.1143,0.0,0.0,0.8866,-0.34740195801551743,-0.5589877063599543,-0.0577330868889804,0.04190448780623551,0.017524967022427767,0.011491055167505912,W
584303,0.8502,0.1143,0.0,0.0,0.9086,-0.35902624160474794,-0.5687678542377904,-0.07052778108816575,0.05565126330047255,0.0017863052482577772,-0.001635047218039005,W
584323,0.8514,0.1156,0.0,0.0,0.8144,-0.3809217175717642,-0.5875837835587862,-0.06406759167914682,0.05764354960398516,0.007890998300057045,-0.000430817641383511,W
584343,0.851,0.1134,0.0,0.0,0.8513,-0.36287025072817075,-0.5713731367591592,-0.07520324890947906,0.03154459902796992,0.0036940218269450502,-0.000671663556714609,W
584363,0.8495,0.1212,0.0,0.0,0.8694,-0.40506209486685935,-0.5775555135360577,-0.0711310672586578,0.0337361139618338,0.00293093519547014,-0.000671663556714609,W
584383,0.8525,0.1169,0.0,0.0,0.8861,-0.3967590351602661,-0.5511925356412564,-0.07007531646029672,0.04190448780623551,0.013614148036118861,-0.007174503270654292,W
584403,0.8498,0.1169,0.0,0.0,0.8881,-0.39565196053272034,-0.5929184096739696,-0.06932120874718166,0.0788613987363945,0.03307285713872903,0.0037839858769107286,W
584423,0.8495,0.1151,0.0,0.0,0.8493,-0.369328186055521,-0.5724896864111744,-0.059392123857833504,0.04519176020703132,0.014091077180790678,0.004747369538235129,W
584443,0.8495,0.1186,0.0,0.0,0.8063,-0.39491391078102317,-0.5862191117618787,-0.05728062226111136,0.04718404651054394,-0.006703033526900583,0.004988215453566227,W
584463,0.8491,0.1203,0.0,0.0,0.8149,-0.3650843999832623,-0.6005895193202214,-0.06452005630701584,0.01082482147143873,-0.0029829861984604026,0.00811921235287052,W
584483,0.8502,0.1199,0.0,0.0,0.7939,-0.40598465705648085,-0.5397995938216203,-0.07324256885537993,0.002457218996685749,-0.05172514478392018,0.011731901082837013,W
584503,0.8495,0.1199,0.0,0.0,0.9034,-0.42788013302349703,-0.5409161434736358,-0.058185551516849426,0.06411848009040115,-0.00021679715936385563,0.02449673459538528,W
584523,0.8502,0.1255,0.0,0.0,0.8823,-0.35385989334286766,-0.5887003332108013,-0.0429777126356959,0.08673092963526932,-0.0009798837908387662,0.03256507275897711,W
584543,0.8495,0.1238,0.0,0.0,0.8828,-0.36379281291779225,-0.6042906746481976,-0.04164545567585932,0.030847298821740504,-0.029977175786885295,0.020522776992422144,W
584563,0.8487,0.1225,0.0,0.0,0.9349,-0.395467448094796,-0.5629576606782303,-0.04629578657340213,0.015905151545395894,-0.017386246367549298,0.020041085161759942,W
584583,0.8491,0.122,0.0,0.0,0.8732,-0.3652689124211866,-0.5695122206724673,-0.05066961130946942,0.02765964073612032,0.00102321861678287,0.03015661360566612,W
584603,0.8487,0.1281,0.0,0.0,0.9186,-0.3525683062773976,-0.5763149028115964,-0.03335027083159377,0.04359793116422123,0.007509454984319593,0.03557564670061585,W
584623,0.8483,0.1329,0.0,0.0,0.8904,-0.29992075732299905,-0.5696362817449135,-0.0577330868889804,0.03483187142876573,-0.009850765881734579,0.008841750098863817,W
584643,0.8449,0.1316,0.0,0.0,0.8369,-0.3562585550358835,-0.5639501492577995,-0.06751135023570555,0.03881644403579096,-0.015096986473124572,-0.010425923127624135,W
584663,0.8434,0.132,0.0,0.0,0.8665,-0.36160941573568806,-0.5723656253387281,-0.05803472997422641,0.049574790074759074,0.007414069155385227,-0.005127312990339951,W
584683,0.8441,0.1337,0.0,0.0,0.7963,-0.3645308626694894,-0.5591117674324005,-0.04629578657340213,0.06680806660014318,0.007318683326450864,-0.004043506371350002,W
584703,0.8445,0.1272,0.0,0.0,0.8928,-0.3486935450809875,-0.5864672339067711,-0.05848719460209545,0.0814513709309609,-0.016241616420336936,-0.006090696651664347,W
584723,0.8415,0.1337,0.0,0.0,0.813,-0.36748306167627814,-0.5946345878428073,-0.06572662864799993,0.05027209028098849,-0.0247309551954953,-0.015363264391911673,W
584743,0.8449,0.1354,0.0,0.0,0.803,-0.37686244393742974,-0.5748261699422431,-0.049764682053731364,0.0538582056273112,0.008558699102597593,-0.018975953121878168,W
584763,0.8457,0.1367,0.0,0.0,0.8627,-0.37117331043476404,-0.5654182052817452,-0.04901057434061631,0.06013390748337594,0.009512557391941226,-0.017290031714560474,W
584783,0.8434,0.1372,0.0,0.0,0.8689,-0.3818442797613857,-0.5785480021156266,-0.041343812590613295,0.08802591573255253,-0.0092784509081284,-0.026803445370138897,W
584803,0.838,0.1367,0.0,0.0,0.9048,-0.3928842739638559,-0.5914296768046159,-0.06632991481849197,0.04847903260782714,0.0032170926822732322,-0.03920701000969051,W
584823,0.8453,0.1385,0.0,0.0,0.8603,-0.40724549204896343,-0.543149242777666,-0.03727163093979203,0.038517601090264066,-0.007752277645178579,-0.02873021269278769,W
584843,0.8464,0.1393,0.0,0.0,0.7944,-0.4214221976961467,-0.58745972248634,-0.0518761836504535,0.03712300067780524,-0.020820136209186393,-0.02740556015846665,W
584863,0.8457,0.138,0.0,0.0,0.8154,-0.42640403352010264,-0.5754464753044737,-0.04840728817012427,0.008035620646521073,-0.006703033526900583,-0.02499710100515565,W
584883,0.8457,0.1424,0.0,0.0,0.7667,-0.4293562325268914,-0.5607245613742001,-0.02613597370945978,0.035728400265346405,0.00045090364317668867,-0.022588641851844653,W
584903,0.8464,0.1415,0.0,0.0,0.802,-0.44814574912218197,-0.5858469285445405,-0.03727163093979203,0.028356940942349734,-0.030644876589425833,-0.0032005456676911545,W
584923,0.8468,0.1428,0.0,0.0,0.802,-0.5120178047169751,-0.5561343016936935,-0.040740526420121256,0.0032541335180907966,-0.048482026600151815,0.0030614481309174306,W
584943,0.8468,0.1398,0.0,0.0,0.7896,-0.5245338984228398,-0.5443691766567192,-0.047954823542255234,0.013912865241883284,0.009512557391941226,-0.0017554701757045582,W
584963,0.846,0.1415,0.0,0.0,0.7839,-0.4890152541224132,-0.53533339521356,-0.028850761476673963,0.07836332716051635,0.03221438467831975,-0.008137886931978693,W
584983,0.8476,0.1402,0.0,0.0,0.8278,-0.5006087856386563,-0.5542733856070016,-0.05066961130946942,0.1204005681646325,0.0055063525766979576,0.006914982776215023,W
585003,0.8476,0.135,0.0,0.0,0.7796,-0.4923364780050504,-0.5634539049680151,-0.050518789766846414,0.11631638124243164,0.01285106140464395,0.028350269240682874,W
585023,0.8468,0.1393,0.0,0.0,0.7958,-0.4728089116580626,-0.5548936909692322,-0.062408554710293704,0.09151241676369959,0.017524967022427767,0.04906301795915743,W
585043,0.8495,0.1437,0.0,0.0,0.7929,-0.42105317282029814,-0.57395774243512,-0.06376594859390079,0.10346613458477529,0.00665098252391032,0.04749751950950528,W
585063,0.846,0.1385,0.0,0.0,0.8799,-0.4858785426777001,-0.5516887799310408,-0.07535407045210207,0.08683054395044497,-0.003936844487804039,0.04496863739852874,W
585083,0.8476,0.1437,0.0,0.0,0.8484,-0.4077990293627364,-0.5805329792747647,-0.07098024571603477,0.09988001923845259,0.028875880665617033,0.061948274429371245,W
585103,0.8479,0.1393,0.0,0.0,0.8054,-0.39509842321894745,-0.5801607960574264,-0.07505242736685605,0.09420200327344164,0.0082725416157945,0.05689051020741816,W
585123,0.8472,0.1415,0.0,0.0,0.7891,-0.4021098958600707,-0.576935208173827,-0.07384585502587197,0.08832475867807943,0.0005462894721110517,0.05929896936072915,W
585143,0.8449,0.1393,0.0,0.0,0.8226,-0.4221602474478439,-0.5825179564339028,-0.05592322837750427,0.08961974477536262,0.011324888141694137,0.07374972428059512,W
585163,0.8468,0.1393,0.0,0.0,0.7834,-0.3763396586966442,-0.5681475488755598,-0.057129800718488354,0.07547451202042306,0.021912715153408494,0.07953002624854151,W
585183,0.846,0.1389,0.0,0.0,0.8106,-0.33104185518623,-0.5837585671583637,-0.04614496503077911,0.11043913664706945,0.022866573442752128,0.06170742851404014,W
585203,0.8491,0.1376,0.0,0.0,0.8202,-0.3109607515254693,-0.5914296768046159,-0.061051160826686615,0.07796486989981381,-0.029118703326476023,0.04207848641455554,W
585223,0.8464,0.1424,0.0,0.0,0.8455,-0.3652689124211866,-0.5578711567079393,-0.07821967976193926,0.09549698937072483,-0.028546388352869836,0.03027703656333167,W
585243,0.8464,0.1372,0.0,0.0,0.8699,-0.3719113601864611,-0.5758186585218119,-0.10064181576522677,0.10555803520346353,0.018574211140705767,0.04701582767884308,W
585263,0.8441,0.1389,0.0,0.0,0.8058,-0.31741868685281965,-0.5670309992235447,-0.10514132512014657,0.11502139514514845,0.0036940218269450502,0.04557075218685648,W
585283,0.8479,0.1424,0.0,0.0,0.813,-0.3479554953292903,-0.5955030153499303,-0.11479390384801921,0.14510491832818892,-0.014620057328452753,0.03027703656333167,W
585303,0.8483,0.1402,0.0,0.0,0.9014,-0.3249529447347283,-0.6082606289664735,-0.11597533926523279,0.10157346259643829,-0.006703033526900583,0.024376311637719732,W
585323,0.8457,0.1454,0.0,0.0,0.8904,-0.3442959986437918,-0.5723656253387281,-0.11403979613490416,0.0788613987363945,-0.05067590066564219,0.026784770791030726,W
585343,0.8457,0.1398,0.0,0.0,0.8603,-0.3838739165785529,-0.5810292235645491,-0.11718191160621687,0.07208762530445162,-0.048100483284414366,0.021606583611412086,W
585363,0.8453,0.1437,0.0,0.0,0.8699,-0.40044928391875195,-0.5457338484536268,-0.07970275826439886,0.08184982819166343,-0.0056537894086225796,0.02100446882308434,W
585383,0.8449,0.1398,0.0,0.0,0.7528,-0.354044405780792,-0.5862191117618787,-0.09340238171932227,0.0690991958491827,-0.025780199313773296,0.031240420224656066,W
585403,0.846,0.1411,0.0,0.0,0.9167,-0.39583647297064467,-0.5807811014196571,-0.10861022060047579,0.05027209028098849,-0.02387248273508602,0.027386885579358478,W
585423,0.8438,0.1372,0.0,0.0,0.8656,-0.32015562134869663,-0.5964955039294992,-0.12110327171441514,0.07487682612936927,-0.07433158624136436,0.05291655260445502,W
585443,0.8453,0.1549,0.0,0.0,0.8732,-0.4083525666765092,-0.5614689278088769,-0.1700197253718114,0.08184982819166343,-0.16113269057163523,0.0841060986398324,W
585463,0.8426,0.1735,0.0,0.0,0.9134,-0.4886462292465646,-0.5781758188982883,-0.18673577967919502,0.09111395950299708,-0.06469761751899362,0.11842664157451406,W
585483,0.843,0.1835,0.0,0.0,0.9048,-0.29567697125074033,-0.51021102804322,-0.16579672217836713,0.08473864333175671,-0.0163370022492713,0.1451605381762661,W
585503,0.8468,0.1813,0.0,0.0,0.878,-0.32366135766925824,-0.6341273625714904,-0.1415647276636035,0.14938833388074105,-0.09846420096175833,0.08747794145446779,W
585523,0.8483,0.1787,0.0,0.0,0.8216,-0.30339574157057325,-0.6199016929310015,-0.13314385820048544,0.06630999502426503,-0.08119936592463853,0.009323441929526017,W
585543,0.8502,0.1679,0.0,0.0,0.8895,-0.37154233531061254,-0.5505722302790258,-0.09732374182752054,0.03204267060384807,-0.038943443706715465,0.017993894881445597,W
585563,0.851,0.1631,0.0,0.0,0.7958,-0.33414781455795567,-0.573358113918297,-0.11524636847588823,-0.02533517493731522,0.006269439208172864,0.013297399532489157,W
585583,0.851,0.1614,0.0,0.0,0.9521,-0.23509538746559708,-0.5690159763826829,-0.11974587783080803,-0.038583878855674096,-0.09398106700184324,0.0025797563002552346,W
585603,0.8502,0.161,0.0,0.0,0.9014,-0.4172091636968754,-0.5489594363372262,-0.149256626337377,-0.06737241594143138,-0.1695266435178592,-0.02499710100515565,W
585623,0.8491,0.1545,0.0,0.0,0.8981,-0.38036818025799135,-0.5376905555900364,-0.11042007911195191,-0.01905947308125048,-0.051343601468182724,-0.00886042467797199,W
585643,0.8487,0.145,0.0,0.0,0.9134,-0.423451834513314,-0.5821457732165642,-0.11778519777670891,-0.0028223397076226776,-0.033506451457456746,0.024255888680054183,W
585663,0.8464,0.1385,0.0,0.0,0.8728,-0.25757515281937354,-0.6532120908827858,-0.0876963000234184,-0.04037693652883546,-0.0027922145405916764,0.005710753199559525,W
585683,0.846,0.1359,0.0,0.0,0.8852,-0.3560740425979592,-0.5914296768046159,-0.08709301385292635,-0.17196744687584362,-0.06631917661087781,-0.028850635650453243,W
585703,0.8453,0.1333,0.0,0.0,0.9043,-0.35515148040833777,-0.5191227484139331,-0.016659353447980644,-0.06547974395309439,-0.022346309472136207,-0.021986527063516906,W
585723,0.8411,0.1329,0.0,0.0,0.8336,-0.3599488037943694,-0.5711250146142668,0.04761576063319216,0.0600342931682003,-0.01175848246042185,-0.018614684248881515,W
585743,0.8468,0.1354,0.0,0.0,0.7772,-0.3533063560290949,-0.5747021088697969,0.08569820014550221,0.05644817782187759,-0.021487837011726938,-0.05185142056457324,W
585763,0.8449,0.1307,0.0,0.0,0.9014,-0.4389201272259673,-0.5438936092123425,0.0570923808946713,0.0360272432108733,-0.050008199863101635,-0.06365287041579712,W
585783,0.8479,0.1303,0.0,0.0,0.943,-0.4637985542727596,-0.5589877063599543,0.013153038143834355,0.070095339000939,-0.05830676698039127,-0.05377818788722204,W
585803,0.8502,0.1311,0.0,0.0,0.8116,-0.5519954996005721,-0.5453616652362886,-0.04013724024962922,0.09549698937072483,0.016380337075215405,-0.021986527063516906,W
585823,0.8445,0.1307,0.0,0.0,0.835,-0.4295407449648157,-0.6295577797363915,-0.05652651454799631,0.13813191626589477,0.09421517348565608,0.027266462621692925,W
585843,0.8457,0.1229,0.0,0.0,0.9034,-0.4291717200889671,-0.6007135803926675,-0.10725282671686871,0.057444320973633896,-0.011949254118290576,0.025339695299044132,W
585863,0.8434,0.1281,0.0,0.0,0.8775,-0.5304382964364172,-0.5003068190929377,-0.10320578198981795,0.13663770153826033,-0.040374231140730917,-0.001635047218039005,W
585883,0.8426,0.1229,0.0,0.0,0.9129,-0.4879081794948674,-0.5692640985275749,-0.14729594628327788,0.12956508516079054,0.012946447233578318,0.01245443882883031,W
585903,0.8441,0.1251,0.0,0.0,0.8355,-0.5214279390511142,-0.511203516622789,-0.1457877308570478,0.09300663149133406,-0.002506057053788584,0.02256996727273649,W
585923,0.8445,0.1238,0.0,0.0,0.9062,-0.48052768197789564,-0.6556726354863007,-0.15556599420377296,0.03951374424202038,0.04261144003216538,0.036539030361940256,W
585943,0.851,0.1264,0.0,0.0,0.8374,-0.47963587186126155,-0.6033188629140364,-0.12892085500704115,-0.0641847578558112,0.04175296757175612,0.04737709655183973,W
585963,0.8438,0.1125,0.0,0.0,0.889,-0.4575251313833336,-0.4854401672448106,-0.08784712156604141,0.021583167510406846,0.04556840072913066,0.1071068835539524,W
585983,0.8457,0.1229,0.0,0.0,0.8417,-0.3842429414544015,-0.5579952177803855,-0.06796381486357458,0.10914415054978625,0.03068821141536994,0.1059026539772969,W
586003,0.8449,0.1216,0.0,0.0,0.845,-0.3724648975002341,-0.5951308321325921,-0.06301184088078574,0.0856351721683374,0.025155833337176855,0.09518501074506297,W
586023,0.8445,0.1169,0.0,0.0,0.9086,-0.2803931909760113,-0.6411988437009195,-0.05622487146275029,0.01371363661153202,0.008940242418335045,0.0884413251157922,W
586043,0.8449,0.1207,0.0,0.0,0.9196,-0.3389451379439873,-0.5761908417391503,-0.07955193672177585,-0.043066523038577484,-0.018817033801564752,0.06435673358268224,W
586063,0.8457,0.122,0.0,0.0,0.771,-0.3251374571726526,-0.5206114812832868,-0.036065058598807945,0.08035561346402897,0.04184835340069048,0.06821026822797982,W
586083,0.8453,0.1156,0.0,0.0,0.9158,-0.2721208833424054,-0.5852266231823098,-0.07263928268488788,0.12757279885727793,0.00293093519547014,0.0596602382337258,W
586103,0.8453,0.116,0.0,0.0,0.8455,-0.3884867275266602,-0.625215642200777,-0.1326913935726164,0.0879263014173769,-0.02272785278787366,0.04135594866856224,W
586123,0.8457,0.1164,0.0,0.0,0.8144,-0.2947544090611188,-0.6020782521895751,-0.1322389289447474,-0.006209226423594122,0.00026013198530795933,0.061466582598709046,W
586143,0.8479,0.1151,0.0,0.0,0.8202,-0.3380225757543658,-0.5619651720986614,-0.14850251862426198,-0.043763823244806904,-0.03331567979958801,0.036779876277271355,W
586163,0.8487,0.113,0.0,0.0,0.9057,-0.3093001395841507,-0.48692890011416395,-0.1310323566037633,0.006142948658184087,-0.020438592893448935,0.039188335430582345,W
586183,0.846,0.1138,0.0,0.0,0.8455,-0.34208184938870023,-0.5848544399649712,-0.10378393123653946,0.09519814642519794,0.011324888141694137,0.03256507275897711,W
586203,0.8441,0.1151,0.0,0.0,0.8269,-0.34503404839548896,-0.5692640985275749,-0.08694219231030334,0.09479968916449542,0.03154668387577921,0.04039256500723785,W
586223,0.8487,0.1156,0.0,0.0,0.8116,-0.29143318517848155,-0.5900650050077084,-0.09581552640129044,0.06252465104759107,0.03145129804684485,0.030638305436328315,W
586243,0.843,0.113,0.0,0.0,0.8025,-0.34337343645417034,-0.5722415642662819,-0.12877003346441815,0.04887748986852966,-0.017481632196483663,0.004747369538235129,W
586263,0.8457,0.119,0.0,0.0,0.8202,-0.34448051108171607,-0.5645497777746226,-0.1414139061209805,0.04329908821869434,0.00474326594522305,-0.0036822374983533504,W
586283,0.8449,0.1134,0.0,0.0,0.8226,-0.3470329331396689,-0.5676513045857754,-0.1414139061209805,0.0548543487790675,-0.015383143959927665,-0.0023575849640323073,W
586303,0.8457,0.122,0.0,0.0,0.89,-0.36711403680042953,-0.5872116003414476,-0.11703109006359387,0.06889996721883143,0.009703329049809955,0.00017129714694423813,W
586323,0.8426,0.113,0.0,0.0,0.8752,-0.31059172664962076,-0.5903131271526009,-0.08362411837259712,0.029950769985159827,-0.007466120158375486,0.005229061368897325,W
586343,0.8434,0.1143,0.0,0.0,0.7982,-0.3385761130681387,-0.5878319057036783,-0.06705888560783652,0.006840248864413501,-0.018912419630499118,-0.004043506371350002,W
586363,0.8445,0.1169,0.0,0.0,0.8498,-0.33525488918550145,-0.5584914620701699,-0.041494634133236306,0.00335374783326643,-0.016146230591402574,-0.011870998619610731,W
586383,0.8426,0.1233,0.0,0.0,0.8818,-0.36231671341439786,-0.5749502310146892,-0.03712080939716901,0.014012479557058914,-0.019961663748777114,-0.023913294386165705,W
586403,0.843,0.1164,0.0,0.0,0.8393,-0.39823513466366045,-0.5966195650019455,-0.022667078229130548,0.04688520356501705,-0.008992293421325308,-0.028850635650453243,W
586423,0.8445,0.1181,0.0,0.0,0.8001,-0.387748677774963,-0.5979842367988529,-0.03410437854470882,0.03044884156103798,0.020958856864064856,-0.028128097904459942,W
586443,0.8403,0.1156,0.0,0.0,0.9014,-0.3417128245128517,-0.5737302971356356,-0.02869993993405095,0.045291374522206954,0.00026013198530795933,-0.020059759740868113,W
586463,0.8434,0.1207,0.0,0.0,0.8144,-0.39971123416705484,-0.5623373553159996,-0.06467087784963886,0.06521423755733309,-0.038943443706715465,-0.012954805238600677,W
586483,0.8403,0.1156,0.0,0.0,0.7389,-0.4030324580496921,-0.5858469285445405,-0.09415648943243733,0.07826371284534071,0.02324811675848958,-0.01343649706926288,W
586503,0.8418,0.1173,0.0,0.0,0.8254,-0.3295657556828357,-0.5723656253387281,-0.10230085273407986,0.055153191724594396,0.02429736087676758,-0.01367734298459398,W
586523,0.8422,0.1117,0.0,0.0,0.9096,-0.37523258406909843,-0.549083497409672,-0.10755446980211472,0.05395781994248683,-0.048482026600151815,-0.029573173396446537,W
586543,0.8411,0.1125,0.0,0.0,0.9425,-0.3995267217291305,-0.5368221280829137,-0.10438721740703151,0.05784277823433642,-0.031980278194506925,-0.036918973814045075,W
586563,0.8487,0.1095,0.0,0.0,0.9354,-0.44353293817407463,-0.5542733856070016,-0.09853031416850462,0.04568983178290948,-0.04371273515343365,-0.01680833988389827,W
586583,0.8388,0.103,0.0,0.0,0.8312,-0.474285011161457,-0.6133471329367645,-0.09732374182752054,0.053061291105906155,0.03431287291487575,-0.006572388482326547,W
586603,0.8396,0.0952,0.0,0.0,0.9077,-0.3890402648404332,-0.645272182246234,-0.09928442188161968,0.009729064004506792,0.03583904617782557,0.022931236145733135,W
586623,0.8399,0.0857,0.0,0.0,0.8914,-0.4228982971995411,-0.6124787054296418,-0.08709301385292635,-0.04944183920981785,-0.014810828986321486,0.04858132612849523,W
586643,0.8396,0.0831,0.0,0.0,0.9143,-0.4368904904088,-0.5003068190929377,-0.09041108779063259,-0.03828503591014721,-0.020438592893448935,0.050387670493478476,W
586663,0.8369,0.0771,0.0,0.0,0.9077,-0.35109220677400327,-0.5034083459040909,-0.03259616311847871,0.14092111709081243,-0.00555840357968822,0.05050809345114402,W
586683,0.8373,0.0732,0.0,0.0,0.9172,-0.4352606305404688,-0.6298059018812838,-0.06286101933816274,0.13663770153826033,-0.06259912928243763,0.03256507275897711,W
586703,0.8369,0.0771,0.0,0.0,0.8388,-0.42990976984066426,-0.5860950506894325,-0.09445813251768335,0.00335374783326643,-0.005844561066491305,0.005590330241893976,W
586723,0.8388,0.0727,0.0,0.0,0.9292,-0.3667450119245809,-0.5332450338273838,-0.09430731097506034,-0.012584542594834483,0.05033769217584884,0.02546011825670968,W
586743,0.8396,0.0719,0.0,0.0,0.9091,-0.37504807163117415,-0.5945105267703615,-0.08513233379882723,0.028157712311998474,-0.03293413648385056,0.045691175144522034,W
586763,0.835,0.0714,0.0,0.0,0.8881,-0.4350761181025445,-0.5905612492974932,-0.09234663092096121,0.006142948658184087,0.00045090364317668867,0.04364398486420768,W
586783,0.8392,0.0706,0.0,0.0,0.8833,-0.3846119663302501,-0.5942624046254691,-0.06602827173324595,0.03921490129649348,0.020100384403655584,0.0373819910655991,W
586803,0.8392,0.0585,0.0,0.0,0.921,-0.3899628270300546,-0.5686437931653446,-0.050518789766846414,0.011123664416965624,-0.04533429424531782,0.02967492177500392,W
586823,0.8365,0.0637,0.0,0.0,0.9163,-0.4354451429783931,-0.5218520920077481,-0.036065058598807945,0.02477082559602703,0.022771187613817762,0.047858788382501925,W
586843,0.8346,0.0589,0.0,0.0,0.9402,-0.3505386694602304,-0.5731099917734049,-0.033802735459462795,0.04230294506693803,0.022008100982342856,0.04545032922919093,W
586863,0.8365,0.0515,0.0,0.0,0.8938,-0.4068764671731149,-0.601209824682452,-0.07128188880128081,0.002855676257388276,-0.03531878220720965,0.03388972529329816,W
586883,0.8449,0.0472,0.0,0.0,0.8866,-0.40543111974270796,-0.5717453199764975,-0.07671146433570918,-0.019557544657128632,-0.016909317222877487,0.022329121357405387,W
586903,0.8369,0.0355,0.0,0.0,0.8771,-0.3809217175717642,-0.5705047092520362,-0.05021714668160039,0.030050384300335457,-0.017004703051811846,0.02256996727273649,W
586923,0.8365,0.0321,0.0,0.0,0.9325,-0.4030324580496921,-0.5349612119962218,-0.02251625668650754,0.0752752833900718,0.01332799054931577,0.009443864887191566,W
586943,0.8396,0.0265,0.0,0.0,0.8833,-0.3998957466049791,-0.5894446996454782,-0.04659742965864815,0.057444320973633896,0.06035320421395701,-0.012352690450272928,W
586963,0.838,0.023,0.0,0.0,0.9186,-0.34651014789888335,-0.6092531175460424,-0.045089214232418046,0.02885501251822789,0.02114962852193358,-0.006211119609329896,W
586983,0.8392,0.0234,0.0,0.0,0.8393,-0.40598465705648085,-0.5437695481398966,-0.06977367337505071,0.016901294697152205,-0.011186167486815666,-0.0007920865143801579,W
587003,0.8384,0.0161,0.0,0.0,0.8522,-0.41702465125895105,-0.5821457732165642,-0.03862902482339912,0.07676949811770625,0.004647880116288684,0.024255888680054183,W
587023,0.8369,0.0217,0.0,0.0,0.8756,-0.3816597673234614,-0.5839860124578485,-0.04448592806192601,0.055950106245999436,0.0038847934848137765,0.018114317839111146,W
587043,0.838,0.0191,0.0,0.0,0.8761,-0.4228982971995411,-0.5737302971356356,-0.06572662864799993,0.06312233693864484,0.00102321861678287,0.010768517421512615,W
587063,0.8365,0.0208,0.0,0.0,0.9526,-0.40909061642820643,-0.5773073913911653,-0.06705888560783652,0.08483825764693236,-0.00861075010558785,0.030036190648000567,W
587083,0.8399,0.0117,0.0,0.0,0.8622,-0.42640403352010264,-0.5756945974493658,-0.08437822608571217,0.07916024168192139,-0.01729086053861494,0.027868577410020672,W
587103,0.8365,0.0221,0.0,0.0,0.8383,-0.3836894041406286,-0.5745780477973507,-0.10049099422260376,0.0742791402383155,0.017524967022427767,0.04304187007587993,W
587123,0.8384,0.0213,0.0,0.0,0.8054,-0.31280587590471226,-0.5723656253387281,-0.08332247528735111,0.09599506094660298,-0.007847663474112945,0.059780661191391346,W
587143,0.8377,0.0208,0.0,0.0,0.8517,-0.36656049948665664,-0.5942624046254691,-0.09475977560292936,0.07866217010604323,-0.04075577445646837,0.03822495176925795,W
587163,0.8377,0.0243,0.0,0.0,0.8426,-0.36105587842191517,-0.5880800278485706,-0.10049099422260376,0.027261183475417797,0.01065718733915359,0.02546011825670968,W
587183,0.8373,0.023,0.0,0.0,0.856,-0.3284586810552899,-0.537194311300252,-0.08241754603161305,0.018495123739962295,-0.0010752696197731293,0.02256996727273649,W
587203,0.8342,0.0239,0.0,0.0,0.802,-0.35183025652570044,-0.559359889577293,-0.053686042161929626,0.055551648985296916,-0.018626262143696025,0.005710753199559525,W
587223,0.8365,0.0265,0.0,0.0,0.8101,-0.34651014789888335,-0.5778036356809501,-0.028850761476673963,0.0989834904018719,-0.04352196349556491,0.00799878939520497,W
587243,0.8335,0.0269,0.0,0.0,0.8259,-0.3849809912060987,-0.5929184096739696,-0.03184205540536366,0.1099410650711913,-0.03512801054934092,0.012936130659492508,W
587263,0.8342,0.0282,0.0,0.0,0.824,-0.36231671341439786,-0.596123320712161,-0.06331348396603177,0.06710690954567007,-0.04199579023261509,0.017030511220121197,W
587283,0.8338,0.0256,0.0,0.0,0.8331,-0.38922477727835747,-0.5467263370331956,-0.07052778108816575,0.06471616598145494,-0.022823238616808024,0.006914982776215023,W
587303,0.8331,0.0273,0.0,0.0,0.8173,-0.3343323269958799,-0.5775555135360577,-0.07475078428161003,0.08952013046018699,0.04108526676921557,0.006914982776215023,W
587323,0.83,0.0273,0.0,0.0,0.9206,-0.31649612466319815,-0.5833863839410255,-0.07791803667669324,0.11233180863540641,-0.012712340749765488,0.004747369538235129,W
587343,0.8342,0.029,0.0,0.0,0.912,-0.4354451429783931,-0.5797886128400879,-0.09913360033899667,0.08194944250683905,-0.005272246092885128,-0.006692811439992096,W
587363,0.8323,0.0282,0.0,0.0,0.8097,-0.395467448094796,-0.5994729696682063,-0.10363310969391647,-0.003220796968325198,0.09354747268311554,0.014260783193813556,W
587383,0.8342,0.0295,0.0,0.0,0.8422,-0.37061977312099104,-0.5388071052420516,-0.11672944697834783,-0.04794762448218339,0.05405773950428902,0.015585435728134603,W
587403,0.8323,0.0282,0.0,0.0,0.8407,-0.3468791727747319,-0.5508203524239178,-0.07912460901767733,0.01630360880609842,0.0065555966949759565,-0.006451965524660994,W
587423,0.8331,0.0282,0.0,0.0,0.8613,-0.3974970849119633,-0.5906853103699391,-0.06316266242340876,0.04798096103194899,-0.0014568129355105811,-0.027766829031463297,W
587443,0.8331,0.0295,0.0,0.0,0.857,-0.41259635274876805,-0.5731099917734049,-0.04961386051110835,0.03433379985288758,0.020768085206196128,-0.0457098497236302,W
587463,0.835,0.0269,0.0,0.0,0.8656,-0.4083525666765092,-0.5618411110262151,-0.07007531646029672,0.0360272432108733,0.06359632239772538,-0.058835952109175124,W
587483,0.8354,0.0256,0.0,0.0,0.9053,-0.4026634331738435,-0.5883281499934627,-0.07505242736685605,0.06242503673241544,0.022103486811277218,-0.026321753539476703,W
587503,0.8323,0.0282,0.0,0.0,0.8608,-0.40137184610837345,-0.552805329583056,-0.10079263730784978,0.04608828904361201,0.017524967022427767,-0.024756255089824552,W
587523,0.8312,0.0269,0.0,0.0,0.835,-0.4045085575530865,-0.5676513045857754,-0.08995862316276355,0.09071550224229455,0.007986384128991412,-0.02644217649714225,W
587543,0.8316,0.0282,0.0,0.0,0.8747,-0.38590355339572013,-0.609625300763381,-0.09958606496686569,0.03234151354937496,-0.021201679524923845,-0.029814019311777643,W
587563,0.8342,0.0256,0.0,0.0,0.8708,-0.47243988678221405,-0.547966947757657,-0.09010944470538655,0.04887748986852966,-0.0032691436852634948,-0.02114356635985806,W
587583,0.8335,0.0234,0.0,0.0,0.8274,-0.4177627010106483,-0.5885762721383551,-0.0907127308758786,0.04947517575958345,0.04070372345347812,-0.0022371620063667544,W
587603,0.83,0.023,0.0,0.0,0.8446,-0.40543111974270796,-0.5572508513457086,-0.07218681805701886,0.02616542600848586,0.019337297772180673,0.0018572185542619366,W
587623,0.8323,0.023,0.0,0.0,0.856,-0.4293562325268914,-0.5671550602959909,-0.06766217177832856,0.05565126330047255,-0.016241616420336936,-0.00416392932901555,W
587643,0.8312,0.0252,0.0,0.0,0.9091,-0.4610308677038952,-0.5670309992235447,-0.07233763959964187,0.06043275042890282,0.009798714878744319,0.010407248548515964,W
587663,0.8316,0.0303,0.0,0.0,0.9655,-0.4321239190957558,-0.5763149028115964,-0.07173435342914983,0.0613292792654835,0.022771187613817762,0.032685495716642664,W
587683,0.8319,0.0355,0.0,0.0,0.8995,-0.42566598376840553,-0.5837585671583637,-0.08995862316276355,0.0107252071562631,0.009894100707678682,0.01763262600844895,W
587703,0.8312,0.0351,0.0,0.0,0.9253,-0.43818207747427007,-0.5530534517279483,-0.05924130231521049,0.015905151545395894,0.014854163812265586,0.03015661360566612,W
587723,0.8293,0.0347,0.0,0.0,0.9062,-0.40524660730478357,-0.5880800278485706,-0.04448592806192601,0.03791991519921028,0.03202361302045103,0.04015171909190674,W
587743,0.8289,0.0364,0.0,0.0,0.8995,-0.40909061642820643,-0.5591117674324005,-0.028850761476673963,0.038318372459912806,0.008558699102597593,0.0364186074042747,W
587763,0.8293,0.0394,0.0,0.0,0.9034,-0.3928842739638559,-0.5657903884990835,-0.03636670168405396,0.0548543487790675,-0.017004703051811846,0.04858132612849523,W
587783,0.8323,0.0394,0.0,0.0,0.8914,-0.4444555003636961,-0.5503241081341333,-0.06587745019062294,0.08952013046018699,-0.029500246642213474,0.028711538113679522,W
1249083,0.9102,0.4608,0.5366,0.5655,0.6354,-0.12002113034681232,-0.4974534144266769,0.5316523647579726,0.08125214230060965,0.05310388121494538,0.0620686973870368,N
1249103,0.9109,0.4582,0.5452,0.5592,0.6265,-0.04563186579033441,-0.4918913430120087,0.5099843364678001,0.08583440079868866,-0.015096986473124572,0.07447226202658841,N
1249123,0.912,0.4586,0.5542,0.5666,0.6215,-0.11042648357474903,-0.5103350891156663,0.48243426801533024,0.07148993941339783,-0.08358401164799761,0.07651945230690275,N
1249143,0.912,0.4659,0.5316,0.5966,0.5618,-0.13751905987663288,-0.5250570030459395,0.4913076021063173,0.04947517575958345,-0.011186167486815666,0.04268060120288329,N
1249163,0.9098,0.4621,0.5447,0.5837,0.5583,-0.059808571437517666,-0.4947240708328619,0.5095318718399311,0.015606308599869006,0.01819266782496831,0.03364887937796706,N
1249183,0.9087,0.4625,0.5361,0.5818,0.5146,-0.09643429036549006,-0.4960887426297694,0.5239856030079696,0.03134537039761866,-0.04504813675851473,0.025941810087371876,N
1249203,0.9094,0.4599,0.5375,0.6001,0.6762,-0.16642600848477226,-0.49362819802625485,0.5390174834227295,0.03791991519921028,-0.03436492391786601,0.006192445030221725,N
1249223,0.9131,0.4621,0.5334,0.595,0.6116,-0.16181319753666495,-0.5034083459040909,0.5486700621506021,0.03762107225368339,0.03278669965192594,-0.005729427778667696,N
1249243,0.9094,0.4595,0.537,0.5682,0.5539,-0.15553977464723895,-0.5003068190929377,0.5575433962415893,0.02018856709794802,0.046522259018474295,-0.0022371620063667544,N
1249263,0.9102,0.4633,0.5339,0.6036,0.615,-0.13917967181795154,-0.4853161061723644,0.5706397335260207,0.031644213343145544,0.03230977050725412,0.0013755267235997363,N
1249283,0.9124,0.4612,0.5425,0.5865,0.5206,-0.14763649188948166,-0.5016714908898452,0.5570909316137203,0.06680806660014318,-0.005844561066491305,0.017753048966114498,N
1249303,0.9105,0.4655,0.5312,0.595,0.6454,-0.18410845045251714,-0.4978255976440151,0.5444470589571578,0.07866217010604323,-0.013475427381240392,0.022449544315070936,N
1249323,0.9109,0.456,0.5398,0.5764,0.5688,-0.1794956395044098,-0.5161452826752261,0.5324064724710875,0.05834084981021458,0.015426478785871769,0.032444649801311565,N
1249343,0.9102,0.4612,0.5352,0.5818,0.6702,-0.12112820497435808,-0.5107072723330045,0.5313507216727265,0.022977767922865676,0.005792510063501046,0.043764407821873234,N
1249363,0.9139,0.4633,0.5307,0.5904,0.5509,-0.12829343798041817,-0.48804544976617903,0.5381125541669914,0.017200137642679098,-0.03617725466761892,0.04653413584818088,N
1249383,0.9098,0.4608,0.5348,0.5911,0.6454,-0.16384283435383215,-0.4876732665488408,0.5402240557637136,0.05545203467012129,-0.01977089209090839,0.03413057120862926,N
1249403,0.912,0.4552,0.5389,0.5736,0.5887,-0.12829343798041817,-0.49546843726753875,0.552867928420276,0.07746679832393567,0.01599879375947795,0.026784770791030726,N
1249423,0.9017,0.4504,0.5461,0.5857,0.5792,-0.10713601176509911,-0.5053726462178211,0.5436929512440428,0.05186591932379859,0.0014047619325203218,0.02377419684939198,N
1249443,0.9094,0.4603,0.5384,0.5857,0.6618,-0.12112820497435808,-0.49447594868796985,0.5333114017268257,0.03712300067780524,-0.01805394717008985,0.03015661360566612,N
1249463,0.9109,0.4603,0.5411,0.5775,0.5877,-0.1505886908962704,-0.4915191597946705,0.5433913081587968,0.05027209028098849,-0.013666199039109124,0.02100446882308434,N
1249483,0.9083,0.4621,0.514,0.5791,0.6528,-0.1365964976870114,-0.4804984011923731,0.546860203639126,0.10794877876767868,0.016571108733084133,0.00414525474990738,N
1249503,0.9087,0.4599,0.5461,0.6238,0.5345,-0.13954869669380013,-0.5084741730289742,0.5206675290702634,0.12299054035919892,0.007986384128991412,0.0023389103849241325,N
1249523,0.9117,0.4603,0.5402,0.6114,0.6359,-0.12773990066664528,-0.5194949316312717,0.4947764975866466,0.05445589151836498,-0.011567710802553125,0.016789665304790098,N
1249543,0.9098,0.4621,0.533,0.5853,0.6827,-0.13585844793531424,-0.5094666616085431,0.4953797837571386,-0.01477605752869836,-0.04275887686409001,0.02473758051071638,N
1249563,0.9102,0.4586,0.5434,0.5802,0.6558,-0.1885059968897128,-0.5037805291214291,0.5197625998145251,-0.02902090459881355,-0.05897446778293182,0.019438970373432195,N
1249583,0.9113,0.4612,0.5389,0.5767,0.5733,-0.21283088662273225,-0.4912710376497785,0.5227790306669855,0.00016608974764624617,-0.05878369612506309,0.03352845642030151,N
1249603,0.9105,0.4616,0.5366,0.6055,0.5892,-0.24229137254464453,-0.5031602237591986,0.5302949708743654,0.027560026420944687,-0.026257128458445113,0.042198909372221094,N
1249623,0.9072,0.4625,0.5429,0.5997,0.6275,-0.19367234515159304,-0.5084741730289742,0.5436929512440428,0.02008895278277239,0.015521864614806135,0.06532011724400663,N
1249643,0.9113,0.459,0.5461,0.5876,0.6469,-0.12884697529419106,-0.4937522590987007,0.5388666618801066,0.017000909012327835,-0.007370734329441127,0.07555606864557836,N
1249663,0.9117,0.4616,0.5076,0.6047,0.6275,-0.14468429288269297,-0.4972052922817845,0.5394699480505986,0.016004765860571528,-0.01977089209090839,0.07940960329087596,N
1249683,0.9105,0.4603,0.5348,0.5954,0.5772,-0.08982259467320285,-0.4873010833315022,0.5453519882128961,-0.01577220068045467,-0.0021245137380511256,0.07110041921195302,N
1249703,0.9109,0.4633,0.5312,0.5958,0.6687,-0.07084856563998793,-0.49238758730179355,0.5736310274547104,0.014410936817761438,-0.03379260894425983,0.052796129646789466,N
1249723,0.9094,0.4578,0.5366,0.5872,0.6295,-0.11227160795399196,-0.48568828938970265,0.5579958608694584,0.011920578938370667,-0.043140420179827464,0.04605244401751868,N
1249743,0.9109,0.4621,0.528,0.5935,0.5782,-0.11300965770568913,-0.48397211122086453,0.5704889119833977,0.02845655525752537,0.0021678485639952325,0.032444649801311565,N
1249763,0.9087,0.4599,0.5348,0.5728,0.5902,-0.07767552584318682,-0.4875492054763946,0.5808704615006147,0.03283958512525311,0.009035628247269408,0.018234740796776696,N
1249783,0.9128,0.4612,0.5447,0.5538,0.6633,-0.09240576880414297,-0.4900304269253172,0.5889896878784868,0.019989338467596755,-0.01652777390714003,0.013417822490154708,N
1249803,0.9113,0.4672,0.5248,0.5919,0.6339,-0.12094369253643379,-0.48481986188257997,0.5894421525063559,0.026464268954012753,-0.006703033526900583,-0.011991421577276284,N
1249823,0.9083,0.4629,0.5375,0.6094,0.6394,-0.13013856235966112,-0.5020436741071834,0.5861240785686497,0.049176332814056554,0.0059832817213697756,-0.014279457772921729,N
1249843,0.9083,0.4625,0.5493,0.595,0.5385,-0.1656879587330751,-0.48692890011416395,0.5721479489522507,0.02895462683340352,0.0021678485639952325,-0.0033209686253567036,N
1249863,0.9069,0.4603,0.5384,0.5896,0.6653,-0.1857383103208484,-0.4879213886937328,0.5665675518751994,0.04190448780623551,0.0028355493665357767,0.007396674606877224,N
1249883,0.9072,0.4582,0.5334,0.6001,0.6434,-0.18300137582497136,-0.49534437619509253,0.5649085149063463,0.07846294147569197,0.007986384128991412,0.01221359291349921,N
1249903,0.9102,0.4582,0.5384,0.5802,0.6588,-0.1699009927323465,-0.5167655880374568,0.5409781634768287,0.0902174306664164,-0.007466120158375486,0.03509395486995366,N
1249923,0.908,0.4578,0.533,0.5888,0.6419,-0.156831361712709,-0.5058688905076055,0.5439945943292888,0.04798096103194899,-0.017386246367549298,0.04424609965253543,N
1249943,0.9109,0.4621,0.5379,0.5861,0.6444,-0.1203901552226609,-0.4927597705191318,0.5479159544374871,0.036425700471575825,-0.018626262143696025,0.04749751950950528,N
1249963,0.9113,0.4582,0.5443,0.5725,0.5723,-0.1203901552226609,-0.4879213886937328,0.5585991470399504,0.0412071876000061,-0.016623159736074394,0.03364887937796706,N
1249983,0.9069,0.4599,0.5389,0.5764,0.6125,-0.10049356399982452,-0.49695717013689245,0.5593532547530654,0.053658976996959935,0.004361722629485595,0.02449673459538528,N
1250003,0.9117,0.4621,0.5407,0.5974,0.5534,-0.08447173397339831,-0.48965824370797856,0.553622036133391,0.05067054754169101,-0.031121805734097653,0.031119997266990516,N
1250023,0.9098,0.4616,0.5321,0.5977,0.6419,-0.12700185091494812,-0.4952203151226467,0.5557335377301131,0.055950106245999436,-0.04123270360114019,0.029795344732669468,N
1250043,0.9102,0.459,0.5312,0.6063,0.5206,-0.11540831939870497,-0.5069854401596205,0.5498514975678158,0.04309985958834308,-0.0017429704223136736,0.018596009669773345,N
1250063,0.908,0.4586,0.5316,0.5857,0.6593,-0.10805857395472059,-0.4864326558243795,0.5627970133096242,0.04210371643658677,0.00665098252391032,0.0011346808082686383,N
1250083,0.9094,0.4625,0.5447,0.5935,0.5449,-0.11872954328134225,-0.4942485033884851,0.545804452840765,0.059038150016443997,-0.005272246092885128,-0.005006890032674398,N
1250103,0.9109,0.4603,0.5389,0.576,0.6354,-0.11503929452285638,-0.4933800758813624,0.5384141972522375,0.04409600274009939,-0.013475427381240392,-0.0035618145406878013,N
1250123,0.9098,0.4586,0.5579,0.5974,0.6807,-0.11780698109172077,-0.49484813190530813,0.5417322711899437,0.033636499646658165,-0.04342657766663055,-0.0022371620063667544,N
1250143,0.9102,0.4603,0.5447,0.602,0.6334,-0.1886905093276371,-0.49670904799200005,0.544296237414535,0.032739970810077484,-0.03837112873310928,-0.006451965524660994,N
1250163,0.9098,0.4621,0.5343,0.5939,0.63,-0.18023368925610694,-0.48990636585287095,0.5629478348522471,0.03712300067780524,0.01437723466759377,0.004265677707572929,N
1250183,0.9094,0.4599,0.5488,0.5748,0.5966,-0.14394624313099577,-0.4916432208671167,0.5685282319292986,0.059436607277146516,-0.0051768602639507616,0.022088275442074288,N
1250203,0.9087,0.4582,0.5407,0.5857,0.6588,-0.1500351535824975,-0.4918913430120087,0.5727512351227428,0.07836332716051635,-0.021487837011726938,0.029795344732669468,N
1250223,0.9083,0.4608,0.537,0.5977,0.6225,-0.14708295457570877,-0.5098388448258814,0.5567892885284742,0.053658976996959935,-0.006321490211163124,0.028831961071345072,N
1250243,0.9098,0.4603,0.5402,0.588,0.6265,-0.12500296617076825,-0.48668077796927156,0.552867928420276,0.019192423946191712,0.015426478785871769,0.019077701500435546,N
1250263,0.9124,0.4621,0.5443,0.5705,0.5892,-0.09698782767926294,-0.48965824370797856,0.5689806965571675,0.017598594903381618,0.005029423432026139,0.01197274699816811,N
1250283,0.9098,0.4578,0.5407,0.5795,0.5827,-0.11559283183662926,-0.4731994747634596,0.5704889119833977,0.0600342931682003,-0.022060151985333114,0.004747369538235129,N
1250303,0.9117,0.459,0.5402,0.5732,0.5872,-0.14966612870664892,-0.5163934048201184,0.5643052287358541,0.07517566907489616,-0.01900780545943348,0.005710753199559525,N
1250323,0.9091,0.4629,0.542,0.5904,0.6672,-0.15517074977139034,-0.5057448294351593,0.563249477937493,0.024073525389797616,-0.004032230316738399,0.011370632209840362,N
1250343,0.9087,0.4582,0.5579,0.5927,0.5583,-0.12426491641907107,-0.47702469116388163,0.581775390756353,0.014809394078463958,-0.004795316948213309,0.02040235403475659,N
1250363,0.9117,0.4608,0.5325,0.604,0.6429,-0.16328929704005926,-0.48692890011416395,0.554225322303883,0.05973545022267341,-0.015573915617796391,0.016548819389459003,N
1250383,0.9102,0.4612,0.5393,0.5678,0.5862,-0.14413075556892008,-0.4863085947519333,0.5613139348071645,0.07168916804374909,0.022008100982342856,-0.001153355387376809,N
1250403,0.9128,0.4603,0.5393,0.553,0.6295,-0.16218222241251354,-0.4894101215630865,0.5566384669858512,0.08802591573255253,-0.00031218298829822195,0.008360058268201619,N
1250423,0.9087,0.4603,0.5434,0.5935,0.6359,-0.1724841668632866,-0.5222242752250863,0.5301441493317425,0.053459748366608675,0.03622058949356303,0.006433290945552823,N
1250443,0.9065,0.4603,0.5606,0.5717,0.6439,-0.09772587743096012,-0.4864326558243795,0.536629475664532,0.004349890985022738,0.017524967022427767,0.0027001792579207837,N
1250463,0.9091,0.4625,0.5407,0.5775,0.6508,-0.15535526220931464,-0.5032842848316448,0.5382633757096146,0.03712300067780524,-0.040469616969665285,0.0163079734741279,N
1250483,0.9102,0.4633,0.5434,0.5814,0.6662,-0.16771759555024235,-0.500430880165384,0.5506056052809307,0.045291374522206954,0.004075565142682503,0.014140360236148007,N
1250503,0.9091,0.4556,0.5456,0.5818,0.5802,-0.09772587743096012,-0.4952203151226467,0.5643052287358541,-0.003519639913852092,-0.0028876003695260362,0.010768517421512615,N
1250523,0.9102,0.4569,0.5389,0.5818,0.5887,-0.15867648609195195,-0.4669964211411535,0.5853951077793053,0.01640322312127405,-0.044857365100646,0.02040235403475659,N
1250543,0.9128,0.4599,0.5266,0.583,0.629,-0.1817097887595013,-0.510459150188112,0.5727512351227428,0.0337361139618338,0.019051140285377584,0.018234740796776696,N
1250563,0.9109,0.4616,0.5271,0.595,0.5758,-0.08594783347679268,-0.4728272915461213,0.5784573168186466,0.006840248864413501,0.010084872365547408,0.011491055167505912,N
1250583,0.908,0.4586,0.5416,0.5779,0.5877,-0.1688246701777881,-0.4922635262293473,0.581775390756353,0.051268233432744795,-0.04638353836359582,0.01666924234712455,N
1250603,0.9083,0.4586,0.5411,0.576,0.6568,-0.19016660883103145,-0.4812427676270499,0.5805688184153688,0.0788613987363945,0.009512557391941226,0.0163079734741279,N
1250623,0.9105,0.4603,0.537,0.5907,0.6295,-0.12297332935360103,-0.49089885443243986,0.5755917075088094,0.0944012319037929,0.015903407930543588,0.0172713571354523,N
1250643,0.9102,0.4603,0.5497,0.5736,0.5807,-0.13954869669380013,-0.5143050434339421,0.5483684190653562,0.07607219791147685,-0.036081868838684555,0.03196295797064937,N
1250663,0.9087,0.4599,0.5456,0.5592,0.5862,-0.16642600848477226,-0.4975774754991231,0.5375092679964995,0.04041027307860105,-0.028164845037132385,0.03196295797064937,N
1250683,0.9076,0.4603,0.5407,0.5787,0.6598,-0.1373345474387086,-0.4904026101426554,0.5382633757096146,0.03772068656885902,-0.0010752696197731293,0.028350269240682874,N
1250703,0.9117,0.4612,0.5456,0.5818,0.5544,-0.11153355820229478,-0.4917672819395629,0.5593532547530654,0.062325422417239804,0.007795612471122682,0.0160671275587968,N
1250723,0.9076,0.4603,0.5425,0.562,0.6951,-0.1365964976870114,-0.5026639794694141,0.5563368239006051,0.06601115207873814,-0.00937383673706276,0.018596009669773345,N
1250743,0.9102,0.4612,0.5352,0.595,0.629,-0.13751905987663288,-0.5000586969480453,0.5473126682669951,0.0181962807944354,0.005792510063501046,0.01955939333109774,N
1250763,0.9109,0.4599,0.5352,0.5647,0.625,-0.14874356651702744,-0.48990636585287095,0.5516613560792918,0.0012618472145781807,0.012755675575709589,0.022329121357405387,N
1250783,0.9109,0.4621,0.5597,0.5966,0.6464,-0.10805857395472059,-0.48481986188257997,0.5592024332104424,0.023675068129095093,0.017524967022427767,0.009564287844857118,N
1250803,0.9091,0.4586,0.5683,0.5896,0.5892,-0.12866246285626676,-0.48779732762128697,0.5581466824120813,0.04399638842492375,-0.017386246367549298,0.014381206151479104,N
1250823,0.9076,0.4612,0.5425,0.5826,0.5762,-0.11319417014361344,-0.49447594868796985,0.5712430196965127,0.04439484568562628,-0.024158640221889113,0.0172713571354523,N
1250843,0.9091,0.4616,0.5411,0.5942,0.6493,-0.16328929704005926,-0.4942485033884851,0.5585991470399504,0.03234151354937496,-0.03369722311532546,0.010045979675519316,N
1250863,0.9117,0.4612,0.5189,0.6102,0.6434,-0.15427893965475625,-0.510459150188112,0.5683774103866756,0.03403495690736069,0.03507595954635066,-0.007897041016647594,N
1250883,0.9083,0.4616,0.5434,0.5779,0.54,-0.09606526548964146,-0.47431602441547466,0.5801163537874997,0.005744491397481567,0.020386541890458673,0.0011346808082686383,N
1250903,0.9072,0.4578,0.5452,0.5904,0.6503,-0.1605216104711949,-0.4922635262293473,0.5876322939948798,0.05067054754169101,-0.04638353836359582,0.020041085161759942,N
1250923,0.9076,0.4612,0.5361,0.5767,0.5554,-0.19441039490329023,-0.4744400854879208,0.5777032091055315,0.019590881206894235,0.00026013198530795933,0.006433290945552823,N
1250943,0.9094,0.4616,0.5456,0.5845,0.6742,-0.13493588574569276,-0.4927597705191318,0.5853951077793053,0.05804200686468769,0.020863471035130494,0.0066741368608839256,N
1250963,0.9087,0.4625,0.5402,0.576,0.6991,-0.17322221661498377,-0.4804984011923731,0.5701872688981516,0.036824157732278345,-0.02425402605082348,0.01618755051646235,N
1250983,0.9135,0.4586,0.5429,0.5771,0.6822,-0.17451380368045386,-0.5034083459040909,0.5703380904407745,0.06272387967794232,-0.004318387803541491,0.02449673459538528,N
1251003,0.9094,0.4616,0.537,0.5799,0.6603,-0.14855905407910314,-0.4940003812435931,0.5701872688981516,0.057045863712931376,-0.018626262143696025,0.026905193748696276,N
1251023,0.912,0.4629,0.5393,0.5845,0.6672,-0.18739892226216703,-0.5026639794694141,0.5707905550686436,0.08513710059245924,-0.02587558514270766,0.03292634163197376,N
1251043,0.908,0.4638,0.5248,0.5923,0.6533,-0.16125966022289207,-0.4925116483742394,0.5691315180997906,0.08742822984149874,-0.004795316948213309,0.043523561906542135,N
1251063,0.9091,0.4599,0.5348,0.5748,0.6304,-0.13013856235966112,-0.5030361626867523,0.5667183734178225,0.05963583590749778,-0.01919857711730221,0.055445434715431556,N
1251083,0.9057,0.4642,0.5402,0.6055,0.5723,-0.12773990066664528,-0.48000215690258863,0.563249477937493,0.04927594712923218,-0.013666199039109124,0.04557075218685648,N
1251103,0.9069,0.4629,0.5393,0.5709,0.6419,-0.11540831939870497,-0.48223525620661883,0.5653609795342152,0.06989611037058774,0.001309376103585959,0.031240420224656066,N
1251123,0.9102,0.4608,0.5425,0.5892,0.624,-0.10178515106529458,-0.492883831591578,0.563249477937493,0.07706834106323315,-0.004127616145672765,0.02064319995008769,N
1251143,0.9102,0.4603,0.5389,0.5876,0.5564,-0.12278881691567674,-0.498569964078692,0.554225322303883,0.03971297287237164,-0.019961663748777114,0.019438970373432195,N
1251163,0.9076,0.4595,0.5248,0.588,0.6503,-0.1461603923860873,-0.49447594868796985,0.5364786541219089,0.015506694284693376,-0.01013692336853767,0.01618755051646235,N
1251183,0.9054,0.4612,0.542,0.5802,0.5419,-0.12829343798041817,-0.4889138772733021,0.5373835833776468,0.019391652576542972,0.002740163537601414,0.00860090418353272,N
1251203,0.9102,0.4419,0.5357,0.5896,0.6772,-0.14874356651702744,-0.4947240708328619,0.5477651328948642,0.03313842807078001,-0.023586325248282934,0.014742475024475756,N
1251223,0.9065,0.4565,0.5416,0.5713,0.5976,-0.16070612290911918,-0.4904026101426554,0.5569401100710973,0.05027209028098849,-0.034746467233603466,0.02136573769608099,N
1251243,0.9094,0.4595,0.557,0.5725,0.5235,-0.1625512472883621,-0.5000586969480453,0.5685282319292986,0.06252465104759107,-0.01710008888074621,0.022329121357405387,N
1251263,0.9094,0.4595,0.5284,0.5927,0.628,-0.15427893965475625,-0.4927597705191318,0.5722987704948738,0.06511462324215746,-0.006226104382228764,0.02136573769608099,N
1251283,0.9087,0.4578,0.5443,0.5542,0.6563,-0.15224930283758903,-0.49387632017114685,0.5673216595883145,0.04290063095799182,0.006937140010713412,0.028350269240682874,N
1251303,0.9098,0.4573,0.5361,0.5771,0.6329,-0.12131271741228238,-0.48568828938970265,0.5694331611850366,0.023376225183568203,0.00102321861678287,0.029795344732669468,N
1251323,0.9094,0.4586,0.5289,0.5709,0.5519,-0.13309076136644982,-0.48606047260704127,0.5712430196965127,0.032739970810077484,-0.007370734329441127,0.030638305436328315,N
1251343,0.9065,0.4573,0.5452,0.5771,0.6662,-0.12315784179152532,-0.4897823047804248,0.5761949936793016,0.045988674728436374,-0.0018383562512480397,0.020041085161759942,N
1251363,0.9168,0.4582,0.5452,0.5802,0.5613,-0.1205746676605852,-0.4874251444039484,0.5835852492678291,0.06073159337442972,-0.0226324669589393,0.02389461980705753,N
1251383,0.9076,0.4612,0.5447,0.5841,0.5961,-0.14874356651702744,-0.5026639794694141,0.5746867782530715,0.05395781994248683,-0.01919857711730221,0.027627731494689573,N
1251403,0.9087,0.4603,0.5479,0.5869,0.6658,-0.15517074977139034,-0.4863085947519333,0.5676233026735604,0.04210371643658677,0.015426478785871769,0.01955939333109774,N
1251423,0.9087,0.4603,0.5574,0.5806,0.6389,-0.11171807064021907,-0.48556422831725643,0.5745359567104483,0.06013390748337594,0.023820431732095766,0.013899514320816906,N
1251443,0.9083,0.4599,0.5434,0.583,0.5758,-0.11503929452285638,-0.49819778086135375,0.562193727139132,0.05824123549503895,0.0008324469589141406,0.019077701500435546,N
1251463,0.9072,0.4556,0.5552,0.576,0.5932,-0.11374770745738631,-0.48692890011416395,0.5692823396424135,0.059237378646795256,-0.007847663474112945,0.007035405733880572,N
1251483,0.9069,0.4608,0.5366,0.5787,0.5633,-0.1336442986802227,-0.4927597705191318,0.5707905550686436,0.051666690693447315,-0.013570813210174759,0.014381206151479104,N
1251503,0.9124,0.4612,0.5407,0.5861,0.5623,-0.13641198524908713,-0.48841763298351726,0.5677741242161836,0.0499732473354616,-0.007943049303047305,0.009925556717853766,N
1251523,0.9091,0.4595,0.5407,0.5674,0.5946,-0.13991772156964868,-0.49325601480891623,0.546860203639126,0.04170525917588425,-0.015383143959927665,0.010286825590850417,N
1251543,0.9142,0.4612,0.5484,0.5775,0.523,-0.16790210798816663,-0.4916432208671167,0.5715446627817587,0.053459748366608675,0.0020724627350608696,0.0013755267235997363,N
1251563,0.9076,0.4573,0.5366,0.5818,0.6399,-0.14431526800684435,-0.5035324069765368,0.5513597129940458,0.0399122015027229,0.0065555966949759565,0.015103743897472405,N
1251583,0.9091,0.4586,0.5533,0.5701,0.628,-0.14523783019646583,-0.4870529611866101,0.5634002994801162,0.04519176020703132,-0.019675506261974028,0.02485800346838193,N
1251603,0.9072,0.459,0.5425,0.5705,0.6543,-0.15390991477890767,-0.5088463562463126,0.5570909316137203,0.03453302848323884,-0.012712340749765488,0.028711538113679522,N
1251623,0.908,0.4608,0.542,0.5713,0.5708,-0.11762246865379648,-0.4837239890759725,0.5755917075088094,0.0008633899538756603,0.0056017384056323205,0.022329121357405387,N
1251643,0.9098,0.4616,0.5425,0.5818,0.5832,-0.11245612039191626,-0.4787615461781274,0.5826803200120909,0.020786252989001802,-0.013189269894437305,0.014622052066810205,N
1251663,0.9024,0.4578,0.5366,0.5744,0.5633,-0.15151125308589183,-0.4845717397376876,0.5867273647391417,0.05226437658450111,-0.019675506261974028,0.012936130659492508,N
1251683,0.9083,0.459,0.5425,0.5756,0.6036,-0.11836051840549366,-0.4927597705191318,0.5974356942653753,0.0600342931682003,0.00102321861678287,0.009443864887191566,N
1251703,0.908,0.4599,0.542,0.5853,0.537,-0.1365964976870114,-0.49460000976041607,0.5816245692137298,0.05804200686468769,-0.03665418381229074,0.017512203050783395,N
1251723,0.9091,0.4608,0.5375,0.5693,0.5927,-0.1756208783079996,-0.48816951083862525,0.5760441721366786,0.04718404651054394,-0.013570813210174759,0.010527671506181514,N
1251743,0.9098,0.4608,0.5384,0.5767,0.5907,-0.1494816162687246,-0.4906507322875478,0.5674724811309373,0.06880035290365581,0.019337297772180673,0.004265677707572929,N
1251763,0.9091,0.4603,0.5425,0.5643,0.5743,-0.14413075556892008,-0.4906507322875478,0.5512088914514229,0.0775664126391113,-0.00641687604009749,0.009805133760188215,N
1251783,0.9087,0.459,0.5398,0.5834,0.5917,-0.18629184763462128,-0.49089885443243986,0.5349704386956787,0.08155098524613655,-0.01977089209090839,0.022329121357405387,N
1251803,0.908,0.4565,0.547,0.6009,0.5549,-0.17432929124252955,-0.49077479335999363,0.545653631298142,0.08005677051850209,0.006746368352844683,0.026905193748696276,N
1251823,0.9069,0.4586,0.5402,0.6051,0.6533,-0.13807259719040577,-0.4972052922817845,0.5610122917219185,0.06880035290365581,-0.014620057328452753,0.02931365290200727,N
1251843,0.9076,0.4595,0.5402,0.588,0.6593,-0.19736259391007893,-0.5061170126524979,0.5804179968727459,0.053061291105906155,-0.04294964852195873,0.01233401587116476,N
1251863,0.9117,0.456,0.5411,0.5892,0.5912,-0.1691936950536367,-0.5001827580204915,0.5641544071932313,0.035529171634995145,-0.009659994223865851,0.03172211205531827,N
1251883,0.9091,0.4599,0.5239,0.5686,0.5922,-0.11559283183662926,-0.48556422831725643,0.5683774103866756,0.03752145793850776,0.010466415681284863,0.04123552571089669,N
1251903,0.9083,0.4552,0.5542,0.5787,0.5762,-0.11008821077188782,-0.4927597705191318,0.5703380904407745,0.04170525917588425,-0.012044639947224944,0.039429181345913444,N
1251923,0.9091,0.4578,0.5384,0.6016,0.6001,-0.12571026384947803,-0.4922635262293473,0.5610122917219185,0.042402559382113666,-0.00031218298829822195,0.03051788247866277,N
1251943,0.9057,0.4547,0.5443,0.5942,0.6787,-0.09019161954905143,-0.48347586693108013,0.5740834920825795,0.06202657947171292,-0.0014568129355105811,0.013297399532489157,N
1251963,0.908,0.4599,0.5384,0.5744,0.6275,-0.1144857572090835,-0.4917672819395629,0.5649085149063463,0.08184982819166343,-0.037703427930568745,0.013176976574823609,N
1251983,0.9094,0.4578,0.5321,0.5946,0.6344,-0.17119257979781655,-0.5084741730289742,0.5573925746989662,0.057444320973633896,-0.011281553315750033,0.009564287844857118,N
1252003,0.9109,0.4573,0.5425,0.5826,0.5802,-0.15427893965475625,-0.4937522590987007,0.5558843592727363,0.029153855463754784,0.04823920393929284,-0.005127312990339951,N
1252023,0.9076,0.4629,0.5398,0.5907,0.6613,-0.1340133235560713,-0.4912710376497785,0.553622036133391,0.0321422849190237,0.03793753441438157,-0.005127312990339951,N
1252043,0.9076,0.4599,0.5583,0.5795,0.5186,-0.15372540234098336,-0.4970812312093383,0.545653631298142,0.029950769985159827,0.015426478785871769,-0.000310394683717962,N
1252063,0.9076,0.4547,0.5361,0.5826,0.6528,-0.18263235094912278,-0.4915191597946705,0.5546777869317521,0.01630360880609842,-0.014429285670584028,0.015224166855137954,N
1252083,0.9102,0.4595,0.5488,0.5888,0.6041,-0.19717808147215465,-0.4983218419337996,0.5540745007612601,0.0017599187904563348,-0.013570813210174759,0.021606583611412086,N
1252103,0.9098,0.4608,0.5402,0.588,0.6498,-0.17008550517027077,-0.4984459030062458,0.5634002994801162,0.002955290572563903,0.0008324469589141406,0.03316718754730486,N
1252123,0.9076,0.4599,0.5407,0.5861,0.6379,-0.12995404992173681,-0.4807465233372655,0.5682265888440524,0.03034922724586235,-0.002410671224854218,0.03388972529329816,N
1252143,0.9069,0.456,0.5475,0.5888,0.6349,-0.1271863633528724,-0.5054967072902673,0.5743851351678255,0.04449446000080191,-0.01805394717008985,0.0364186074042747,N
1252163,0.9098,0.4608,0.5434,0.5853,0.5837,-0.13235271161475265,-0.49238758730179355,0.5793622460743848,0.025368511487080816,-0.009659994223865851,0.03557564670061585,N
1252183,0.9105,0.4565,0.5334,0.6071,0.6881,-0.08982259467320285,-0.4863085947519333,0.5862749001112727,0.012020193253546297,0.004266336800551232,0.03208338092831491,N
1252203,0.908,0.4612,0.5352,0.609,0.6016,-0.08945356979735425,-0.4734475969083516,0.5956258357538993,0.03194305628867244,-0.004032230316738399,0.022088275442074288,N
1252223,0.9076,0.4556,0.5429,0.5884,0.6588,-0.11503929452285638,-0.48717702225905635,0.5900454386768479,0.06122966495030787,-0.005844561066491305,0.010045979675519316,N
1252243,0.9069,0.4633,0.5497,0.5872,0.6439,-0.12223527960190385,-0.4837239890759725,0.5883864017079948,0.05465512014871624,0.015903407930543588,-0.008017463974313143,N
1252263,0.908,0.4565,0.5434,0.5954,0.6618,-0.13917967181795154,-0.490154487997763,0.5724495920374967,0.05863969275574148,0.014663392154396859,-0.015122418476580576,N
1252283,0.9069,0.4573,0.5389,0.595,0.5753,-0.1238958915432225,-0.4864326558243795,0.5798147107022537,0.0399122015027229,-0.0010752696197731293,-0.005006890032674398,N
1252303,0.9076,0.4539,0.5538,0.5744,0.5976,-0.16328929704005926,-0.4854401672448106,0.5772507444776627,0.051069004802393535,-0.04800509745548,0.00811921235287052,N
1252323,0.9094,0.4629,0.5366,0.5756,0.5767,-0.1851847730070755,-0.4972052922817845,0.5613139348071645,0.055950106245999436,-0.036463412154422004,0.013176976574823609,N
1252343,0.9091,0.4573,0.5416,0.5779,0.6051,-0.1763589280596968,-0.4937522590987007,0.5667183734178225,0.04967440438993471,0.00474326594522305,0.011009363336843714,N
1252363,0.9072,0.4608,0.5361,0.5592,0.6474,-0.17174611711158944,-0.49052667121510163,0.5754408859661866,0.06083120768960534,0.003312478511207595,0.00799878939520497,N
1252383,0.9065,0.4578,0.5244,0.5406,0.6404,-0.16734857067439377,-0.4915191597946705,0.5746867782530715,0.0778652555846382,-0.01929396294623657,0.022088275442074288,N
1252403,0.9083,0.4599,0.5407,0.5814,0.6553,-0.15498623733346606,-0.5054967072902673,0.5685282319292986,0.06372002282969863,-0.05306054638900128,0.024376311637719732,N
1252423,0.9098,0.4595,0.5407,0.5732,0.5857,-0.1759899031838482,-0.48012621797503485,0.5737818489973333,0.048080575347124614,-0.0852055707398818,0.024015042764723084,N
1252443,0.9083,0.4526,0.5352,0.5853,0.6946,-0.1945949073412145,-0.48692890011416395,0.5740834920825795,0.061727736526186024,-0.08310708250332581,0.03352845642030151,N
1252463,0.9072,0.4526,0.5443,0.5799,0.5927,-0.17229965442536233,-0.495592498339985,0.5569401100710973,0.06690768091531882,-0.05449133382301672,0.03750241402326465,N
1252483,0.9069,0.4578,0.5398,0.5974,0.5703,-0.12626380116325092,-0.4918913430120087,0.5685282319292986,0.06969688174023649,-0.017767789683286756,0.0383453747269235,N
1252503,0.9087,0.4608,0.5456,0.5631,0.6563,-0.0852097837250955,-0.4983218419337996,0.5610122917219185,0.08155098524613655,-0.029977175786885295,0.03437141712396036,N
1252523,0.9065,0.4603,0.5379,0.5911,0.6682,-0.09680331524133864,-0.49534437619509253,0.5381125541669914,0.07388068297761297,-0.053632861362607455,0.03208338092831491,N
1252543,0.9076,0.4582,0.5212,0.5596,0.6429,-0.09901746449643016,-0.4902785490702092,0.5316523647579726,0.05634856350670196,-0.00851536427665349,0.01245443882883031,N
1252563,0.9076,0.456,0.5416,0.562,0.5723,-0.04341771653524289,-0.48816951083862525,0.525317859967806,0.05425666288801372,0.0021678485639952325,-0.01343649706926288,N
1252583,0.908,0.4556,0.5339,0.5865,0.5877,-0.09827941474473299,-0.4973293533542307,0.5293900416186275,0.06710690954567007,-0.0296910183000822,-0.03005486522710874,N
1252603,0.9076,0.4603,0.5411,0.6036,0.5912,-0.16439637166760504,-0.5083501119565281,0.5304457924169885,0.05714547802810701,0.00293093519547014,-0.02873021269278769,N
1252623,0.9087,0.4573,0.5407,0.5682,0.5827,-0.15535526220931464,-0.5058688905076055,0.5444470589571578,0.008732920852750486,0.01781112450923086,-0.019096376079543714,N
1252643,0.9094,0.4586,0.5198,0.5904,0.5544,-0.1658724711709994,-0.4854401672448106,0.5513597129940458,0.012717493459775716,-0.00641687604009749,-0.015122418476580576,N
1252663,0.9076,0.4603,0.5447,0.5616,0.5877,-0.2115392995572622,-0.4995624526582609,0.5495498544825697,0.038318372459912806,-0.012521569091896756,-0.006090696651664347,N
1252683,0.9072,0.4565,0.5538,0.5799,0.6026,-0.22147221913218668,-0.5008030633827222,0.5555827161874901,0.045291374522206954,0.014663392154396859,-0.0045251982020122015,N
1252703,0.908,0.4595,0.5379,0.588,0.5907,-0.18115625144572842,-0.48397211122086453,0.5649085149063463,0.013912865241883284,0.019623455258983766,0.00462694658056958,N
1252723,0.9102,0.4586,0.5239,0.5658,0.6086,-0.17156160467366513,-0.4796299736852504,0.5789097814465157,0.0032541335180907966,-0.014429285670584028,0.010045979675519316,N
1252743,0.9069,0.4578,0.5366,0.5635,0.5653,-0.16125966022289207,-0.4864326558243795,0.5951733711260304,-0.0036192542290277184,-0.038752672048846734,0.014742475024475756,N
1252763,0.9069,0.459,0.5407,0.5787,0.6091,-0.16089063534704348,-0.5001827580204915,0.5965307650096374,-0.00720536957535043,-0.040660388627534,-0.00018997172605240886,N
1252783,0.9072,0.4586,0.5656,0.5764,0.531,-0.19791613122385182,-0.4937522590987007,0.6132216823932505,-0.022545974112397556,-0.007561505987309852,-0.01993933678320256,N
1252803,0.9069,0.4595,0.5411,0.6009,0.6792,-0.21759745793577653,-0.4769006300914354,0.6502483711071996,-0.01905947308125048,0.038796006874790845,-0.00898084763563754,N
1252823,0.9087,0.4599,0.5357,0.5865,0.5678,-0.16661052092269657,-0.4792577904679118,0.6549238389285127,0.015606308599869006,0.031832841362582305,0.013658668405485807,N
1252843,0.9069,0.4621,0.5402,0.5861,0.6628,-0.1886905093276371,-0.46354338795806965,0.6363979261096531,0.004549119615373998,-0.013189269894437305,0.020041085161759942,N
1252863,0.9072,0.4595,0.5402,0.5814,0.6667,-0.22184124400803526,-0.4621787161611622,0.6325017029252252,0.024471982650500136,0.01065718733915359,0.010888940379178163,N
1252883,0.9087,0.4608,0.5552,0.6001,0.5474,-0.19662454415838176,-0.4710904365318756,0.6284295212744041,0.027560026420944687,0.0609255191875632,0.0037839858769107286,N
1252903,0.9113,0.459,0.533,0.583,0.6861,-0.16218222241251354,-0.4606899832918088,0.6308426659563722,0.013215565035653869,0.02610969162652049,0.006914982776215023,N
1252923,0.9083,0.4603,0.5411,0.5616,0.5867,-0.21870453256332228,-0.44706394216814266,0.6222458380268605,0.05206514795414985,-0.01805394717008985,0.007155828691546121,N
1252943,0.9094,0.4578,0.5402,0.5977,0.6513,-0.257206127943525,-0.4752878361496359,0.5959274788391454,0.0775664126391113,0.01628495124628104,-0.00018997172605240886,N
1252963,0.9076,0.4616,0.5402,0.5799,0.5673,-0.2085871005504735,-0.484468355510649,0.5805688184153688,0.08443980038622982,0.048048432281424115,0.007517097564542772,N
1252983,0.9024,0.4582,0.5176,0.5752,0.5797,-0.21024771249179214,-0.5027880405418603,0.5507564268235539,0.06810305269742639,0.02591891996865176,0.027266462621692925,N
1253003,0.9069,0.4629,0.5398,0.5911,0.6379,-0.19954599109218307,-0.5010511855276145,0.515388775078458,0.03054845587621361,0.03908216436159394,0.02967492177500392,N
1253023,0.9098,0.4595,0.5447,0.5837,0.5837,-0.17396026636668097,-0.4876732665488408,0.5256195030530523,0.0259661973781346,0.030878983073238667,0.024376311637719732,N
1253043,0.9057,0.4595,0.5384,0.5775,0.5693,-0.1798646643802584,-0.5116997609125733,0.5220249229538704,0.04628751767396327,0.000927832787848507,0.040272142049572295,N
1253063,0.9065,0.4595,0.5298,0.5756,0.5569,-0.2078490507987763,-0.5062410737249441,0.5134280950243587,0.021583167510406846,0.0036940218269450502,0.05026724753581292,N
1253083,0.9076,0.4612,0.5443,0.5814,0.5464,-0.20102209059557744,-0.5161452826752261,0.5060629763596017,-0.009894956085092454,0.022771187613817762,0.07085957329662192,N
1253103,0.9087,0.4552,0.5438,0.5954,0.6439,-0.15224930283758903,-0.5027880405418603,0.5260719676809211,-0.012186085334131963,-0.007466120158375486,0.09097020722676873,N
1253123,0.9094,0.4608,0.5379,0.5915,0.6334,-0.16421185922968076,-0.5176340155445798,0.554526965389129,0.003951433724320211,-0.007561505987309852,0.11192380186057438,N
1253143,0.9069,0.4603,0.5398,0.5837,0.6886,-0.11503929452285638,-0.4927597705191318,0.5868781862817647,-0.016270272256332822,0.02343888841635831,0.1006040438400127,N
1253163,0.9076,0.4608,0.5429,0.5888,0.6011,-0.07693747609148964,-0.4900304269253172,0.620008651811286,-0.010193799030619347,0.023057345100620855,0.10265123412032705,N
1253183,0.9065,0.4556,0.5357,0.5748,0.5951,-0.04489381603863725,-0.4667482989962611,0.6494942633940844,-0.009396884509214306,0.015235707128003043,0.0884413251157922,N
1253203,0.9065,0.4621,0.5407,0.5826,0.6861,-0.027764911384665254,-0.4585809450602245,0.6776476180170464,0.006342177288535348,-0.01090001000001258,0.06833069118564537,N
1253223,0.9076,0.4616,0.5547,0.5974,0.6842,-0.04710796529372877,-0.470718253314537,0.6893865614178706,0.03413457122253632,-0.03579571135188147,0.04400525373720433,N
1253243,0.9131,0.4595,0.5384,0.583,0.6653,-0.07011051588829076,-0.46304714366828487,0.7005222186482027,0.017399366273030358,-0.026257128458445113,0.03485310895462256,N
1253263,0.9072,0.459,0.5384,0.6024,0.6449,-0.04950662698674457,-0.44545114822634313,0.711808697421158,0.08324442860412226,-0.0247309551954953,0.03533480078528475,N
1253283,0.9094,0.4612,0.537,0.5876,0.6593,-0.06608199432694367,-0.5083501119565281,0.6692267485539283,0.04678558924984142,-0.035032624720406566,0.038706643599920154,N
1253303,0.9091,0.4586,0.5416,0.595,0.6603,-0.0719556402675337,-0.4434868479126126,0.6681709977555672,0.06122966495030787,-0.016241616420336936,0.02967492177500392,N
1253323,0.9069,0.4535,0.5411,0.5802,0.5509,-0.051690024168848714,-0.48804544976617903,0.6291836289875191,0.11402525199339214,0.0059832817213697756,0.01185232404050256,N
1253343,0.9043,0.456,0.5352,0.5822,0.6677,-0.06368333263392785,-0.45659596790108675,0.6043483483022634,0.12827009906350734,-0.020915522038120752,0.0007734119352719872,N
1253363,0.9094,0.4578,0.5239,0.5888,0.6737,-0.09957100181020305,-0.5022917962520754,0.5671708380456914,0.12757279885727793,-0.02272785278787366,-0.006933657355323194,N
1253383,0.9069,0.4608,0.5479,0.5756,0.6682,-0.1303230747975854,-0.48469580081013375,0.5659642657047074,0.1132283374719871,0.00045090364317668867,-0.027766829031463297,N
1253403,0.9072,0.4595,0.5452,0.5872,0.6633,-0.13235271161475265,-0.4804984011923731,0.5512088914514229,0.09470007484931979,-0.023586325248282934,-0.02210695002118246,N
1253423,0.9083,0.4573,0.5456,0.5896,0.5902,-0.20286721497482035,-0.4980737197889075,0.5575433962415893,0.11183373705952826,-0.03999268782499347,-0.02186610410585136,N
1253443,0.9087,0.4595,0.5447,0.5981,0.5638,-0.23140513870711119,-0.49460000976041607,0.5409781634768287,0.05585049193082381,0.017715738680296494,-0.028368943819791048,N
1253463,0.9065,0.4569,0.5384,0.5639,0.6319,-0.15793843634025476,-0.48903793834574794,0.5551302515596211,0.052862062475554895,0.016380337075215405,-0.011389306788948535,N
1253483,0.9057,0.4599,0.5316,0.609,0.6523,-0.19662454415838176,-0.4983218419337996,0.5674724811309373,0.03074768450656487,-0.02806945920819802,0.008841750098863817,N
1253503,0.9069,0.4612,0.5366,0.5693,0.5917,-0.20581941398160908,-0.4814908897719423,0.5726004135801198,0.01889358100066482,-0.0021245137380511256,0.00799878939520497,N
1253523,0.9069,0.4603,0.5402,0.5985,0.6583,-0.16162868509874065,-0.4818630729892806,0.5945700849555382,0.04041027307860105,0.01065718733915359,0.01269528474416141,N
1253543,0.908,0.4586,0.5398,0.5697,0.5991,-0.15446345209268056,-0.48347586693108013,0.5953241926686532,0.05863969275574148,-0.029118703326476023,0.03172211205531827,N
1253563,0.9076,0.4556,0.5402,0.6067,0.6076,-0.16753308311231804,-0.49670904799200005,0.5874814724522567,0.03483187142876573,-0.016146230591402574,0.03413057120862926,N
1253583,0.9094,0.4603,0.5533,0.5744,0.5941,-0.1340133235560713,-0.4717107418941059,0.6058565637284935,0.02616542600848586,0.016571108733084133,0.02148616065374654,N
1253603,0.9072,0.4668,0.542,0.5818,0.6623,-0.11467026964700779,-0.4778931186710047,0.6175955071293179,0.04210371643658677,-0.007084576842638034,0.01715093417778675,N
1253623,0.9091,0.4603,0.528,0.5717,0.5882,-0.15188027796174042,-0.477272813308774,0.6129200393080045,0.039613358557196006,-0.02511249851123275,0.018957278542769993,N
1253643,0.9072,0.4625,0.5434,0.5693,0.6111,-0.1605216104711949,-0.4968331090644463,0.6126183962227585,0.04907671849888092,-0.0013614271065762215,0.022088275442074288,N
1253663,0.9113,0.4612,0.5284,0.5799,0.6304,-0.13825710962833007,-0.48260743942395745,0.6041975267596404,0.053260519736257415,-0.004032230316738399,0.02256996727273649,N
1253683,0.9076,0.4586,0.5361,0.5958,0.6011,-0.13641198524908713,-0.484220233365757,0.5945700849555382,0.06043275042890282,-0.020438592893448935,0.02630307896036853,N
1253703,0.9076,0.4608,0.5411,0.574,0.6006,-0.13604296037323851,-0.4916432208671167,0.5810212830432379,0.06790382406707512,-0.023586325248282934,0.030999574309324967,N
1253723,0.9072,0.4612,0.5529,0.5911,0.6314,-0.12700185091494812,-0.49114697657733225,0.5671708380456914,0.07039418194646589,-0.023395553590414203,0.028350269240682874,N
1253743,0.9076,0.4659,0.542,0.569,0.5922,-0.12297332935360103,-0.4858123504621489,0.5614647563497875,0.06959726742506085,-0.020820136209186393,0.031119997266990516,N
1253763,0.9117,0.4689,0.528,0.5865,0.6076,-0.11891405571926655,-0.49387632017114685,0.5623445486817551,0.06800343838225076,-0.00851536427665349,0.020041085161759942,N
1253783,0.9094,0.4629,0.5456,0.5818,0.6702,-0.11669990646417502,-0.5012993076725066,0.554225322303883,0.05465512014871624,0.013709533865053225,0.0065537139032183726,N
1253803,0.9061,0.4612,0.5443,0.5814,0.6752,-0.10805857395472059,-0.5051245240729286,0.5354229033235478,0.014012479557058914,0.015044935470134316,-0.007897041016647594,N
1253823,0.9076,0.4582,0.5239,0.5682,0.5673,-0.1073205242030234,-0.4787615461781274,0.5697348042702826,0.010924435786614364,0.00293093519547014,-0.008619578762640892,N
1253843,0.9072,0.4599,0.5402,0.6051,0.6329,-0.14745197945155736,-0.5037805291214291,0.5868781862817647,0.03034922724586235,-0.02272785278787366,-0.0030801227100256054,N
1253863,0.9061,0.4595,0.5045,0.5686,0.5872,-0.1658724711709994,-0.4696017036625219,0.6055549206432475,-0.013779914376942051,-0.0028876003695260362,-0.005729427778667696,N
1253883,0.9065,0.4599,0.5416,0.5725,0.5966,-0.15040417845834608,-0.4783893629607891,0.6174446855866947,0.014709779763288328,0.012087974773169044,-0.00886042467797199,N
1253903,0.9076,0.4586,0.5538,0.5686,0.6051,-0.16273575972628643,-0.4804984011923731,0.6246589827088287,0.019292038261367342,-0.002410671224854218,-0.01247311340793848,N
1253923,0.9072,0.4595,0.5452,0.5717,0.6717,-0.18023368925610694,-0.4818630729892806,0.6169922209588257,0.02198162477110937,0.00026013198530795933,-0.007054080312988743,N
1253943,0.9113,0.4638,0.5416,0.562,0.5922,-0.1756208783079996,-0.4814908897719423,0.6275245920186658,0.03562878595017078,-0.007179962671572401,0.0016163726389308343,N
1253963,0.9061,0.4621,0.5552,0.6051,0.5772,-0.1851847730070755,-0.47394384119813643,0.620310294896532,0.045092145891855694,-0.00813382096091603,0.005710753199559525,N
1253983,0.9065,0.4625,0.5393,0.5635,0.5927,-0.18189430119742558,-0.4790096683230198,0.6299377367006342,0.06372002282969863,0.0023586202218639587,0.013417822490154708,N
1254003,0.9072,0.4573,0.5334,0.5872,0.6976,-0.17119257979781655,-0.4792577904679118,0.6226983026547297,0.06093082200478098,-0.004127616145672765,0.018114317839111146,N
1254023,0.9065,0.4651,0.5357,0.5697,0.5723,-0.1758053907459239,-0.48928606049064033,0.6010302743645572,0.04429523137045065,-0.012521569091896756,0.02485800346838193,N
1254043,0.9098,0.4625,0.5271,0.5814,0.6767,-0.15553977464723895,-0.47913372939546595,0.5996728804809501,0.04200410212141114,0.0023586202218639587,0.01715093417778675,N
1254063,0.9102,0.4603,0.5266,0.5837,0.5877,-0.1404405068104342,-0.4849439229550258,0.5856967508645512,0.05993467885302467,-0.006798419355834942,0.015826281643465702,N
1254083,0.9065,0.4616,0.5466,0.5491,0.6697,-0.1601525855953463,-0.49114697657733225,0.5761949936793016,0.05804200686468769,-0.012521569091896756,0.009564287844857118,N
1254103,0.9076,0.4629,0.5402,0.59,0.5683,-0.15480172489554175,-0.4785134240332353,0.590497903304717,0.02805809799682284,0.012469518088906499,0.011250209252174811,N
1254123,0.908,0.4599,0.5389,0.5849,0.5927,-0.1340133235560713,-0.4873010833315022,0.599371237395704,0.041306801915181726,0.00293093519547014,0.015103743897472405,N
1254143,0.9046,0.4621,0.5556,0.5939,0.6324,-0.14819002920325455,-0.4760322025843127,0.5972848727227525,0.04668597493466579,-0.01023230919747203,0.018716432627438894,N
1254163,0.9065,0.4612,0.5456,0.5725,0.6424,-0.1566468492747847,-0.4962128037022156,0.6048008129301324,0.06272387967794232,-0.0010752696197731293,0.01221359291349921,N
1254183,0.908,0.4608,0.5398,0.5752,0.539,-0.15775392390233045,-0.47826530188834293,0.6081188868678387,0.04190448780623551,0.015235707128003043,0.004265677707572929,N
1254203,0.9094,0.4608,0.5384,0.5592,0.6334,-0.15830746121610334,-0.4853161061723644,0.6168413994162028,0.049176332814056554,0.0017863052482577772,0.00787836643753942,N
1254223,0.9069,0.4603,0.5425,0.5845,0.6409,-0.1682711328640152,-0.479381851540358,0.6127692177653814,0.04847903260782714,-0.013570813210174759,0.014862897982141304,N
1254243,0.9061,0.4625,0.5443,0.5577,0.5802,-0.1787575897527126,-0.4804984011923731,0.6145790762768576,0.06053236474407846,-0.02883254583967293,0.025941810087371876,N
1254263,0.9094,0.4616,0.5389,0.5744,0.5792,-0.1699009927323465,-0.49313195373647,0.6014827389924263,0.06013390748337594,-0.027783301721394926,0.02473758051071638,N
1254283,0.9076,0.4621,0.509,0.5896,0.6543,-0.17894210219063691,-0.4785134240332353,0.6005778097366882,0.024173139704973246,-0.02349093941934857,0.028229846283017324,N
1254303,0.9076,0.4616,0.5583,0.581,0.6031,-0.1566468492747847,-0.47146261974921383,0.6078172437825927,0.037222614992980865,0.004266336800551232,0.023292505018729787,N
1254323,0.9069,0.4625,0.5461,0.5674,0.5812,-0.1308766121113583,-0.4906507322875478,0.5963799434670143,0.06242503673241544,-0.014810828986321486,0.02148616065374654,N
1254343,0.9083,0.4608,0.5153,0.5841,0.6479,-0.1726686793012109,-0.4858123504621489,0.5858224354834036,0.059038150016443997,-0.02005704957771148,0.01221359291349921,N
1254363,0.9057,0.4629,0.5298,0.576,0.5762,-0.16439637166760504,-0.4875492054763946,0.5868781862817647,0.06352079419934738,0.007890998300057045,0.013297399532489157,N
1254383,0.9105,0.4621,0.5438,0.6187,0.6379,-0.14579136751023872,-0.4889138772733021,0.5745359567104483,0.06551308050285999,-0.023204781932545476,0.027627731494689573,N
1254403,0.9069,0.4569,0.5389,0.5958,0.5872,-0.17432929124252955,-0.5000586969480453,0.5629478348522471,0.048279803977475874,-0.028355616695001112,0.032203803885980466,N
1254423,0.9094,0.4621,0.5384,0.5841,0.6404,-0.15775392390233045,-0.4882935719110714,0.5772507444776627,0.028356940942349734,0.006937140010713412,0.022449544315070936,N
1254443,0.9094,0.4625,0.5542,0.5635,0.5439,-0.13548942305946565,-0.4781412408158967,0.5874814724522567,0.04449446000080191,-0.00031218298829822195,0.009925556717853766,N
1254463,0.9072,0.4616,0.5312,0.5826,0.5946,-0.15849197365402765,-0.4895341826355327,0.5835852492678291,0.045092145891855694,-0.025303270169101475,0.014622052066810205,N
1254483,0.9091,0.4573,0.5361,0.6086,0.5842,-0.1595990482815734,-0.48866575512840965,0.5972848727227525,0.026862726214715273,-0.011663096631487485,0.0160671275587968,N
1254503,0.9061,0.4612,0.5416,0.5861,0.6837,-0.14431526800684435,-0.48310368371374185,0.6136741470211196,0.026763111899539647,-0.0008844979619044032,0.013176976574823609,N
1254523,0.9105,0.4612,0.5343,0.583,0.6518,-0.1467139296998602,-0.48099464548215753,0.6038958836743944,0.0337361139618338,-0.004509159461410217,0.0066741368608839256,N
1254543,0.9069,0.4612,0.5552,0.5892,0.6434,-0.1397332091317244,-0.48481986188257997,0.5963799434670143,0.038916058350966586,-0.010041537539603304,0.00787836643753942,N
1254563,0.9083,0.4608,0.5407,0.5756,0.5723,-0.15830746121610334,-0.4818630729892806,0.5986171296825891,0.04329908821869434,-0.017767789683286756,0.007517097564542772,N
1254583,0.9102,0.4569,0.5411,0.5861,0.5991,-0.17082355492196796,-0.48779732762128697,0.6066106714416085,0.04041027307860105,-0.01395235652591221,0.01185232404050256,N
1254603,0.9083,0.4509,0.5438,0.5869,0.6593,-0.1822633260732742,-0.4851920450999182,0.6141266116489886,0.03752145793850776,-0.005844561066491305,0.00811921235287052,N
1254623,0.9083,0.4578,0.5402,0.6024,0.6066,-0.15188027796174042,-0.4769006300914354,0.6061582068137394,0.0399122015027229,-0.006798419355834942,0.01763262600844895,N
98403,0.9361,0.6169,0.5492,0.0,0.767,0.8350767524953088,-0.5620892331711076,-0.913821299740956,-0.26630220334716587,0.8936438057845573,0.24499117008100682,Z
98423,0.9373,0.614,0.5229,0.0,0.7638,1.1156894185051727,-0.5034083459040909,-0.8816209003909434,-0.3965977275968909,1.2062231672024666,0.09530543370272851,Z
98443,0.9387,0.6178,0.5497,0.0,0.8022,1.198720015571105,-0.4558516014664099,-0.7740097297294258,-0.5164337487531746,1.3964225100975876,-0.16167715795555457,Z
98463,0.938,0.6182,0.5263,0.0,0.7342,1.0339196564317232,-0.4575884564806556,-0.6487775755047865,-0.6149523064618734,1.451841676708453,-0.4781486907006192,Z
98483,0.9399,0.6178,0.5492,0.0,0.76,0.6395243203685443,-0.41489077071378117,-0.4942106312399716,-0.6794027683805064,1.5424582141960983,-0.7254974457456583,Z
98503,0.9387,0.6186,0.5344,0.0,0.7464,0.337723476070374,-0.44001313788412116,-0.3938137577005879,-0.6529053605437887,1.7027064068058293,-0.7400686236231898,Z
98523,0.9391,0.6174,0.5205,0.0,0.7206,0.12983946267566931,-0.42057690320089514,-0.4180457522153515,-0.7147658502678553,2.022725862880619,-0.46803316225671304,Z
98543,0.9373,0.6169,0.5449,0.0,0.7534,0.29630043375636994,-0.374033324188191,-0.2896714825193994,-0.881022142295983,2.26080889190079,-0.3511024703634643,Z
98563,0.9384,0.6169,0.5282,0.0,0.776,0.226893005023848,-0.3696911866525765,-0.05652651454799631,-0.9895021315222449,2.1955649849096854,-0.3889152790704469,Z
98583,0.9384,0.6169,0.5607,0.0,0.8182,0.042565079537478186,-0.3822006781242272,0.16560848081192706,-0.9804372288412624,2.020436602986194,-0.5516066948766045,Z
98603,0.9376,0.6194,0.5177,0.0,0.7778,-0.22276380619765673,-0.368326514855669,0.3162792018923141,-0.9197721108993033,1.8693454499541622,-0.6185618593386502,Z
98623,0.9391,0.619,0.5555,0.0,0.8013,-0.4045085575530865,-0.3922289481469557,0.4803227664186081,-0.855919334871724,1.8246094961839459,-0.5010290526570736,Z
98643,0.9402,0.6215,0.554,0.0,0.7736,-0.4637985542727596,-0.42986080678894684,0.7227935331088674,-0.8047175768714498,1.6781922487696976,-0.3741032552775843,Z
98663,0.9391,0.6182,0.5177,0.0,0.7177,-0.6628259706470983,-0.41859192604175705,0.8892502423171293,-0.6743224383065493,1.394419407689966,-0.23862742790384087,Z
98683,0.9373,0.6157,0.5502,0.0,0.7797,-0.7635390096807755,-0.4731994747634596,1.0197611505335742,-0.5547852600957923,1.145939323315949,-0.1899765530069588,Z
98703,0.9384,0.6178,0.5913,0.0,0.806,-0.906259380415217,-0.490154487997763,1.1813915703779,-0.46035088930929446,0.7761284645374213,-0.11519389629665239,Z
98723,0.9358,0.6207,0.5473,0.0,0.7783,-1.0734276491746273,-0.5232167638046552,1.2971471043410603,-0.3119255596976047,0.45610900846263147,-0.026803445370138897,Z
98743,0.9406,0.619,0.5454,0.0,0.7487,-1.1809676484115035,-0.5352093341411138,1.3347770792255012,-0.17684854831944954,0.16222526951585728,0.1652711721064129,Z
98763,0.9369,0.6182,0.5727,0.0,0.8299,-1.2306937504321007,-0.4613102886540391,1.253182624666453,-0.06189362860677169,-0.026924829260985658,0.4193636127807228,Z
98783,0.9387,0.6165,0.566,0.0,0.7577,-1.0242858365407905,-0.4125336103373048,1.1293330012491911,0.04688520356501705,-0.14358169804771231,0.6634609479687921,Z
98803,0.9373,0.6144,0.5646,0.0,0.7882,-0.7611403479877594,-0.37167616381171464,0.949453174747481,0.07876178442121887,-0.33568875752152055,0.8256706719442874,Z
98823,0.9376,0.6132,0.543,0.0,0.7539,-0.4800048967371101,-0.3268487629678482,0.778195313099053,0.05834084981021458,-0.5512607309131823,0.8845574982427413,Z
98843,0.9376,0.6136,0.5488,0.0,0.7595,-0.26603197289090375,-0.3299502897790014,0.6476844048826084,-0.04515842365726573,-0.7464201369128901,0.8811856554281059,Z
98863,0.9358,0.6161,0.5454,0.0,0.7342,-0.06054662118921485,-0.29899705220369355,0.630691844413749,-0.1803350493505966,-0.9519765982664437,0.8026698870301676,Z
98883,0.9373,0.6178,0.5636,0.0,0.7858,0.010705931922550064,-0.33329993873504665,0.6779492611022924,-0.20553747109003118,-1.2040813441399665,0.7307773813038343,Z
98903,0.9358,0.6132,0.5416,0.0,0.7858,0.07645386396957353,-0.30172639579750815,0.7622333665047846,-0.13012943450207873,-1.3648064658943693,0.5741071133809542,Z
98923,0.9339,0.6132,0.5234,0.0,0.799,0.20219909041497994,-0.44373497005750506,0.777441205385938,0.04489291726150443,-1.560824344354486,0.4444115879751572,Z
98943,0.935,0.6132,0.5282,0.0,0.7807,0.0576643473742829,-0.5429011206327736,0.6862193090227874,0.027958483681647214,-1.7907995779152368,0.41346288785511087,Z
98963,0.9346,0.6144,0.5454,0.0,0.8384,-0.14339270581722288,-0.5687678542377904,0.5564876454432283,-0.03599390666110771,-1.8415448389083182,0.5182308610241391,Z
98983,0.9328,0.6211,0.5,0.0,0.7938,-0.13788808475248146,-0.5926702875290772,0.4368358882956402,-0.0936705951477979,-1.7668577348527117,0.7606422748048907,Z
99003,0.9313,0.614,0.5311,0.0,0.7384,-0.044709303600712944,-0.5756945974493658,0.3286214314636305,-0.18352270743621676,-1.7173524896357768,0.9821000939518366,Z
99023,0.9302,0.6115,0.5358,0.0,0.7774,0.21234727450081617,-0.5693881596000211,0.23574049813162673,-0.2435901394871221,-1.7521683171968196,1.0391805758853072,Z
99043,0.932,0.6111,0.5181,0.0,0.7041,0.2948243342529756,-0.5502000470616871,0.19074540458242875,-0.3351356951335267,-1.8717821466805113,1.002090304924318,Z
99063,0.9324,0.6124,0.5397,0.0,0.7835,0.21526872143461745,-0.45895312827756274,0.17508510107340616,-0.39639849896653956,-1.8871392651389443,1.0107607578762374,Z
99083,0.9328,0.6124,0.5373,0.0,0.8206,0.2939017720633541,-0.41054863317816664,0.18217371357668768,-0.42199937796667664,-1.6744288666153133,1.0955385200727845,Z
99103,0.9309,0.6119,0.5387,0.0,0.7999,0.567902742380931,-0.3032151286668615,0.20142859718489198,-0.4429183841535591,-1.4391120266342383,1.125644259489172,Z
99123,0.9313,0.609,0.5048,0.0,0.7534,0.8882778387634803,-0.37105585844948397,0.19300772772177388,-0.5159356771772965,-1.3337106856617664,1.1025230516173865,Z
99143,0.9317,0.6119,0.5411,0.0,0.7929,0.9950797882486592,-0.43740785536275273,0.165156016184058,-0.6867742277035032,-1.2710421960518896,0.9971529636600304,Z
99163,0.9298,0.6107,0.533,0.0,0.7675,0.9937882011831891,-0.4802502790474811,0.20097613255702293,-0.7722433101241942,-1.1906319422602212,0.8129058384317392,Z
99183,0.9272,0.6103,0.5287,0.0,0.8346,0.9678334515818385,-0.5869634781965556,0.22460484090129448,-0.6984291025790519,-0.9742014964081501,0.7247562334205568,Z
99203,0.9313,0.6095,0.5138,0.0,0.7548,1.0633801423536353,-0.7746472039621339,0.1874273306447225,-0.6248141236642608,-0.6515112371231984,0.7272851155315334,Z
99223,0.9335,0.6099,0.5177,0.0,0.7149,1.285256348957599,-0.873317110247618,0.23574049813162673,-0.5717196936756496,-0.29743904011884076,0.6612933347308122,Z
99243,0.929,0.609,0.5354,0.0,0.7379,1.4636798764303915,-0.908364363213648,0.33885215943822466,-0.4324588810601179,-0.016623159736074394,0.4739152126032168,Z
99263,0.9302,0.607,0.5406,0.0,0.8121,1.5038113316789254,-0.8953586274522128,0.42869152499399765,-0.22167499014848333,0.2350046569927767,0.16635497872540286,Z
99283,0.9298,0.6065,0.5421,0.0,0.8046,1.4629418266786942,-0.8455894605559092,0.4521945487194168,0.022081239086285,0.4560136226336971,-0.18046313935138034,Z
99303,0.9302,0.6078,0.5531,0.0,0.7736,1.2771685537619175,-0.7817186850915631,0.3970944118144771,0.18704254501712947,0.6835088246421542,-0.4497288726915495,Z
99323,0.929,0.6111,0.543,0.0,0.8079,1.1184263530010499,-0.6927048656114688,0.31446934338083804,0.26533939674517515,0.9794910518254843,-0.5864089296419485,Z
99343,0.9283,0.6049,0.5296,0.0,0.7915,1.0556613720338024,-0.5994729696682063,0.24162253829392413,0.27360738490475256,1.26269157793161,-0.6839515253510436,Z
99363,0.9257,0.6061,0.5449,0.0,0.8041,1.0230641746671771,-0.525305125190832,0.18368192900291777,0.14460684675231078,1.5194702294229165,-0.7872744230280854,Z
99383,0.9279,0.609,0.5411,0.0,0.7839,0.9838552816082645,-0.40498656176349884,0.2160331498955534,-0.043863437559982524,1.6867769733737903,-0.9193784075871934,Z
99403,0.9279,0.6103,0.5205,0.0,0.7426,0.8871707641359344,-0.288100354673842,0.270077536002132,-0.14576888198465274,1.7577440301009568,-1.0628021501668632,Z
99423,0.9298,0.6078,0.5282,0.0,0.7905,0.7564437018665722,-0.29070563719521075,0.2643463173824577,-0.26709911786857093,1.9093121122776604,-1.1371031150465072,Z
99443,0.929,0.607,0.5373,0.0,0.7821,0.7277212656963571,-0.2758389853470837,0.4165001169653043,-0.45507133060498606,2.107333093145399,-1.1687743529125467,Z
99463,0.9268,0.6082,0.544,0.0,0.7947,0.7555211396769507,-0.26841599784572356,0.5598057193809344,-0.6296952251078667,2.199094260580257,-1.124338281533959,Z
99483,0.929,0.6095,0.5349,0.0,0.7553,0.814995648834548,-0.20911480521647627,0.7664563696982288,-0.7548108049684589,2.219316056314342,-1.181298340509764,Z
99503,0.9264,0.6086,0.5598,0.0,0.8173,0.7120684605457793,-0.19921059626619414,1.0041008470245518,-0.7526192900345949,2.1059023057113837,-1.3038889114132939,Z
99523,0.9249,0.6078,0.5445,0.0,0.8248,0.4076844421166689,-0.24267332531315292,1.1537158173065776,-0.6647594640496888,1.9347801286031354,-1.3828863716418942,Z
99543,0.9276,0.6078,0.5244,0.0,0.8201,0.03942836809276519,-0.2812976725347129,1.286765554823843,-0.5393450412435696,1.8874687574516915,-1.318219243375494,Z
99563,0.9268,0.6082,0.5818,0.0,0.7835,-0.07011051588829076,-0.3242641572918874,1.374644240325517,-0.41432907569815314,1.8795517336501393,-1.1180762877353505,Z
99583,0.9268,0.6082,0.5593,0.0,0.8149,-0.15132674064796756,-0.3074125282846222,1.4622464196657154,-0.34111255404406454,1.7156788795409026,-0.9314207033537484,Z
99603,0.9231,0.6082,0.5248,0.0,0.7539,-0.22663856739406693,-0.2883484768187344,1.6100515314362653,-0.23661713742482796,1.4735896457054878,-0.8247259628620713,Z
99623,0.9253,0.6095,0.5306,0.0,0.7591,-0.4249279340167083,-0.3089012611539755,1.7437045551240227,-0.0817168773267222,1.07010758931313,-0.7857089245784332,Z
99643,0.9242,0.6161,0.5339,0.0,0.7591,-0.6795858504252216,-0.36090352735430925,1.843925470197013,0.09699120409835929,0.6897089035228879,-0.7321207084172636,Z
99663,0.9242,0.6111,0.5368,0.0,0.8168,-0.9670254766382844,-0.40014817993809987,1.8776592218970263,0.3000051784262947,0.28670377627520177,-0.5377580547450663,Z
99683,0.9249,0.6111,0.5397,0.0,0.8027,-1.086497280194265,-0.4625508993785004,1.8236148357904474,0.45420813831817103,0.03278669965192594,-0.18359413625068463,Z
99703,0.9261,0.6082,0.5287,0.0,0.8243,-0.9224657228795674,-0.44855267503749635,1.802399272128144,0.549738266571601,-0.1646619662422067,0.15648029619682777,Z
99723,0.9257,0.6082,0.5201,0.0,0.7915,-0.614391455691971,-0.46329526581317726,1.756197606237962,0.6617047568290098,-0.447290177374726,0.34650772339306524,Z
99743,0.9253,0.6086,0.4957,0.0,0.7248,-0.3809217175717642,-0.49546843726753875,1.6248069056895498,0.7455800102068909,-0.7631126569764037,0.4188819209500606,Z
99763,0.9264,0.6086,0.5349,0.0,0.7835,-0.10658247445132622,-0.5337412781171681,1.4079003904738907,0.8172027028181693,-0.9744876538949534,0.45970530359868195,Z
99783,0.9257,0.607,0.5368,0.0,0.7849,0.1513966658398243,-0.585350684254756,1.2393321796689065,0.9201042903945958,-1.1485667917001667,0.3498795662077006,Z
99803,0.9253,0.6082,0.5363,0.0,0.806,0.24420642211574425,-0.6809397405744946,1.0683759611057246,1.0277873650994527,-1.3591787019872417,0.18381630758690756,Z
99823,0.9261,0.6078,0.5373,0.0,0.7924,0.2673934851482305,-0.7017406470546281,0.896188033277788,1.1464280144736287,-1.4722109092744624,0.019438970373432195,Z
99843,0.9279,0.6095,0.5397,0.0,0.8196,0.31601251254128204,-0.7812224408017783,0.70939555273919,1.223728723049918,-1.5288700916614744,-0.11700024066163563,Z
99863,0.9272,0.6111,0.5358,0.0,0.8004,0.22467885576875649,-0.8183580551539849,0.5190084921014103,1.24534502944303,-1.5448949109224475,-0.27824658097580673,Z
99883,0.9257,0.6103,0.5363,0.0,0.7858,0.10812849914657738,-0.8176136887193081,0.4585039165858126,1.254509546439188,-1.5923016679028261,-0.4497288726915495,Z
99903,0.9257,0.6065,0.5067,0.0,0.7192,-0.044155766286940054,-0.7185715992164857,0.44631250855711935,1.34246898673927,-1.771436254641561,-0.5714764828914203,Z
99923,0.9268,0.6082,0.5473,0.0,0.7933,-0.2721208833424054,-0.6392138665417814,0.35976608001528204,1.462205393580378,-1.8714959891937084,-0.5721990206374136,Z
99943,0.9302,0.6103,0.5358,0.0,0.8093,-0.35090769433607905,-0.5909334325148314,0.2425274675496622,1.5167940382966236,-1.7403404744089586,-0.3444792076918591,Z
99963,0.9264,0.6061,0.5373,0.0,0.8051,-0.19773161878592754,-0.4814908897719423,0.1904437614971827,1.5014534337595766,-1.491288075061335,-0.06690429027276695,Z
99983,0.9261,0.6086,0.5277,0.0,0.7497,0.09616594275448563,-0.4098042667434902,0.12707357667174798,1.5419964600360583,-1.364043379262894,0.14708730549891488,Z
100003,0.9242,0.6057,0.5488,0.0,0.8022,0.24402190967781998,-0.3825728613415658,-0.05323357753406059,1.5209778395340001,-1.2621713139609938,0.20043467574475343,Z
100023,0.9257,0.609,0.51,0.0,0.7018,0.3292666559988438,-0.2933109197165792,-0.2178804282308466,1.464596137144593,-1.1731763355652327,0.13673093113967763,Z
100043,0.9249,0.6095,0.5301,0.0,0.73,0.3327723923194054,-0.2775758403613294,-0.3909732853145212,1.4030344903660534,-1.125292649440182,0.08314271497850799,Z
100063,0.9246,0.6111,0.5143,0.0,0.7919,0.40660811956211046,-0.2565268117363035,-0.48925865725718276,1.2575975902096326,-1.115277137402074,-0.01969849086787146,Z
100083,0.9246,0.6111,0.5378,0.0,0.8126,0.2878436136848398,-0.20193993986000877,-0.6361337028482241,1.111264161216631,-1.1586776895672093,-0.04029081662868047,Z
100103,0.9249,0.609,0.5138,0.0,0.8027,0.19005202158496395,-0.16269528727621813,-0.7490236275015472,0.9049629144878999,-0.9455857477278413,0.036539030361940256,Z
100123,0.9249,0.6086,0.5091,0.0,0.7581,0.300728732266553,-0.14844894079032167,-0.792812148709761,0.7186841451094705,-0.6488404339130361,0.17899938928028555,Z
100143,0.9242,0.6099,0.5382,0.0,0.7807,0.4393590772936727,-0.14586433511436073,-0.8285065804638735,0.5197543577037359,-0.5096725094977997,0.19995298391409122,Z
100163,0.9246,0.6095,0.5349,0.0,0.7581,0.4564879819476446,-0.14931736829744455,-0.8352684129581384,0.3288933298272276,-0.39902494793393795,0.1640669425297574,Z
100183,0.9264,0.6103,0.5306,0.0,0.7577,0.44766213700026597,-0.17532883982031525,-0.820060574076985,0.1710046402738529,-0.30392527648637746,0.12998724551040683,Z
100203,0.9261,0.6111,0.5215,0.0,0.7487,0.4163565266991106,-0.21047947701338376,-0.7613658570728634,0.07437875455349112,-0.24469067671813768,0.0824201772325147,Z
100223,0.9246,0.6119,0.5421,0.0,0.8013,0.3382770133841469,-0.25580312214703427,-0.7272047776687516,0.027261183475417797,-0.1868868643839134,0.06821026822797982,Z
100243,0.9253,0.6182,0.5397,0.0,0.7882,0.2180364080034819,-0.3399785598017299,-0.746912125904825,-0.04017770789848419,-0.027306372576723116,0.12480905833078819,Z
100263,0.9208,0.6103,0.5449,0.0,0.8154,0.18599274795062945,-0.3917327038571713,-0.7076482509753014,-0.134910921630509,0.17309925401437476,0.21765515869092705,Z
100283,0.9257,0.6111,0.5397,0.0,0.7821,0.2101331252457246,-0.44398309220239746,-0.6623263774170868,-0.14646618219088217,0.26743583883046035,0.22560307389685333,Z
