timestamp,flex1,flex2,flex3,flex4,flex5,ax,ay,az,gx,gy,gz,target
482974,0.0965,0.0068,0.028,0.0366,0.0,-1.611677711402082,2.878128738403491,2.2000212401564174,1.6398341717599192,0.6114959284238195,-0.46337515571334265,HELLO
482994,0.0965,0.0129,0.0317,0.0504,0.0,-1.7300175026720994,2.878128738403491,2.3335112036059416,1.6398341717599192,0.8935860752112619,-0.6295562621373071,HELLO
483014,0.0942,0.0124,0.0366,0.0508,0.0,-1.34014462869348,2.878128738403491,2.3335112036059416,1.6398341717599192,1.0995118823660945,-0.8923466228910766,HELLO
483034,0.0907,0.0129,0.0502,0.0416,0.0,-1.2323419421255872,2.878128738403491,2.1152531328027138,1.6398341717599192,1.0388625008067942,-1.10040273033854,HELLO
483054,0.0926,0.0129,0.0407,0.0332,0.0,-1.1687140406550642,2.6971672905969126,1.790440758830579,1.6398341717599192,0.9725713163117454,-1.2055848195235492,HELLO
483074,0.0915,0.0155,0.0304,0.0416,0.0,-1.0990070403179306,2.2447636710804657,1.7330044244086773,1.6398341717599192,0.9862056734064718,-1.3671497841024036,HELLO
483094,0.0992,0.0137,0.0415,0.0573,0.0,-1.0880646623580315,1.897351834961233,1.6256578959373984,1.6398341717599192,1.0012504812351353,-1.5996054984454493,HELLO
483114,0.1054,0.0185,0.0489,0.057,0.0,-1.0220051213408643,1.6591997409138959,1.5115774523959655,1.6398341717599192,1.083056623803494,-1.5996054984454493,HELLO
483134,0.1209,0.0237,0.0428,0.0412,0.0146,-0.7723567945520603,1.4782382931073175,1.5242530572339024,1.6398341717599192,0.7351454427656482,-1.5996054984454493,HELLO
483154,0.1287,0.0202,0.0539,0.0378,0.0326,-0.5640463400562072,1.5106747790349118,1.4327510348100447,1.6398341717599192,0.1610919940532034,-1.5996054984454493,HELLO
483174,0.1298,0.0207,0.0576,0.0393,0.0236,-0.6860335906461914,1.1453375164820085,1.346002364200414,1.6398341717599192,-0.3447896691856095,-1.5996054984454493,HELLO
483194,0.1275,0.0198,0.0522,0.0462,0.0,-1.0601008075716234,0.6135498656164499,1.2747020869870183,1.6398341717599192,-0.28367013738166363,-1.5996054984454493,HELLO
483214,0.1143,0.0194,0.0481,0.0405,0.0415,-1.1999200815036646,0.1850468146782308,1.274305974335833,1.6398341717599192,0.37736110659024263,-1.545860418391667,HELLO
483234,0.112,0.0176,0.0604,0.0266,0.09,-0.5502670492918903,0.4411243351592383,1.460478920393032,1.6398341717599192,1.1159671409286955,-1.3628633666748013,HELLO
483254,0.1066,0.0172,0.0329,0.0293,0.0457,0.13221311679958053,0.40783425749670726,1.6102095025411627,1.5957779966527965,1.3374079061568374,-1.3826468317252734,HELLO
483274,0.0992,0.0142,0.03,0.0328,0.0014,0.18935664614571915,0.2576021121478491,1.6605158092417247,1.4980594127685773,1.2490196601634391,-1.5442117963041277,HELLO
483294,0.0942,0.0055,0.0387,0.0255,0.0,0.3701085191129376,0.4214917252556947,1.608228939285235,1.3324346943207477,1.3378780564014836,-1.5996054984454493,HELLO
483314,0.0876,0.0033,0.0185,0.0159,0.0098,0.3048595246113183,0.5742846458093617,1.491771819836689,1.3311096965731652,1.4290872038627564,-1.5996054984454493,HELLO
483334,0.0829,0.0012,0.0276,0.014,0.09,0.24447380920298736,0.6152570490863231,1.3024299725700055,1.37880961548614,1.2494898104080847,-1.5996054984454493,HELLO
483354,0.0829,0.0003,0.0,0.0124,0.0715,0.3141808095401214,0.805608005977205,1.2663837213121223,1.507996895875447,0.6886005685457207,-1.5996054984454493,HELLO
483374,0.0829,0.0,0.0,0.0163,0.1391,-0.49312351994575176,0.5059973070144264,1.0366383836245143,1.6398341717599192,0.11078591787610986,-1.5996054984454493,HELLO
483394,0.086,0.0,0.0,0.0044,0.229,-0.993635993296682,0.3514972029908852,0.8009513561691236,1.5401280912543258,0.04684548460428936,-1.5996054984454493,HELLO
483414,0.0895,0.0,0.0,0.0028,0.2589,-1.41552545463945,0.24138386918405286,0.7157871361642347,1.4294907793311757,-0.12805040640392487,-1.5996054984454493,HELLO
483434,0.1,0.0,0.0,0.032,0.396,-1.891316259266164,-0.05139809589923214,0.5941805522502766,1.366884635757896,-0.4533943756987748,-1.5996054984454493,HELLO
483454,0.0891,0.0,0.0,0.0666,0.4134,-2.645935065241413,0.19785069070228167,-0.23052598751799777,0.9849540350172015,-1.2333736315660524,-0.558335787955608,HELLO
483474,0.0798,0.0,0.0,0.052,0.3948,-2.645935065241413,-0.9220616655346577,-0.09149044695187669,-0.1157878437870732,-0.45010332398625447,-0.02517140484538869,HELLO
483494,0.0849,0.0,0.0,0.0216,0.4481,-1.9962820330296387,0.30369606583443104,0.5066396563382743,-0.20224394681684005,0.7379663442335229,0.05791914836659375,HELLO
483514,0.0868,0.0,0.0,0.0071,0.4032,-1.5922245950289282,-0.6890311218969412,0.533179203967705,-0.07073792036926359,1.2137583918150086,0.4206160076252464,HELLO
483534,0.0841,0.0,0.0,0.0001,0.4798,-1.7729764679961466,-0.8290201664265582,0.4900029249884821,-0.3874123820415134,1.0877581262499514,1.1377666157048554,HELLO
483554,0.0779,0.0,0.0,0.0055,0.3571,-1.879158061532943,-1.2404513826660435,0.5216919370833246,-0.6086870058878137,0.9387204986972524,1.2788886663982217,HELLO
483574,0.0791,0.0,0.0,0.0136,0.4044,-2.260520197098308,-1.578473709700973,0.47653509484817425,-0.6146494957519354,0.8324665434073161,1.3131800058190397,HELLO
483594,0.0818,0.0,0.0,0.0021,0.381,-2.390612912843772,-1.7671174831219816,0.6868709126276911,-0.6441306956356491,0.7083468788208416,1.6976386766332117,HELLO
483614,0.0806,0.0,0.0,0.0128,0.3116,-2.1851393711523377,-1.983929783795901,0.8686866195218493,-0.7117055807623635,0.38112230854740864,1.6976386766332117,HELLO
483634,0.0767,0.0,0.0,0.0059,0.2667,-2.3144215403822543,-1.9139352615310925,1.0120793992510115,-0.8700428115984886,0.2626444468966829,1.6976386766332117,HELLO
483654,0.0705,0.0,0.0,0.0,0.2775,-2.0226247947849507,-1.4376310734364186,1.0746651981383255,-0.9886301100071343,0.6928319207475319,1.6976386766332117,HELLO
483674,0.0624,0.0,0.0,0.0,0.2715,-1.4151201813816758,-0.6711056954632698,1.2584614682884117,-1.0134738177743088,1.399467738450075,1.6976386766332117,HELLO
483694,0.0585,0.0,0.0,0.014,0.2733,-0.4205796068041998,0.29601374022000077,1.398289234156904,-1.0982736736195975,2.284290498873352,1.6976386766332117,HELLO
483714,0.055,0.0,0.0,0.0128,0.1721,0.4811533917430224,0.9976661463379602,1.248558652008773,-1.1648548104356249,2.344939880432652,1.6976386766332117,HELLO
483734,0.0473,0.0,0.0,0.0,0.2092,1.4067975124989132,2.6809490476331153,1.2041940350759937,-0.9975738448033172,2.344939880432652,1.6976386766332117,HELLO
483754,0.0485,0.0,0.0,0.0,0.1864,1.4067975124989132,2.878128738403491,1.2457858634504746,-0.41391233699316615,2.344939880432652,1.6976386766332117,HELLO
483774,0.0535,0.0,0.0,0.0005,0.1415,1.4067975124989132,2.878128738403491,1.4279976829958185,-0.26683758701149357,1.9283867636765288,1.6976386766332117,HELLO
483794,0.0543,0.0,0.0,0.0005,0.199,1.4067975124989132,2.878128738403491,1.2739098616846474,-0.06510667994203727,0.8164814350893612,1.4549615053474223,HELLO
483814,0.0496,0.0,0.0,0.0,0.1343,1.4067975124989132,2.6527805203802046,1.159433305492029,-0.014425516097001339,0.7915634721231367,0.34741718693850016,HELLO
483834,0.0535,0.0,0.0,0.0,0.1421,1.4067975124989132,2.3164653768151484,1.3816525028071116,0.04619313085490419,0.33927893677393794,-0.5438279135852621,HELLO
483854,0.0535,0.0,0.0,0.0,0.09,1.4067975124989132,1.5985947277333907,1.594761109144927,0.26779900413809987,-0.9000371081122248,-1.3899007689104466,HELLO
483874,0.0535,0.0,0.0,0.0186,0.1044,1.4067975124989132,0.9754727612296068,1.572974913329723,0.3376926353230839,-1.216448222758806,-1.5996054984454493,HELLO
483894,0.0535,0.0,0.0,0.0,0.1146,1.4067975124989132,0.49490061446024963,1.6125861784482756,0.18995538646762014,-0.7350143722415713,-1.5996054984454493,HELLO
483914,0.055,0.0,0.0,0.0,0.1122,1.4067975124989132,0.4266132756653143,1.6074367139828638,0.03426815112666031,-0.3805210877786855,-1.5996054984454493,HELLO
483934,0.0539,0.0,0.0,0.0,0.1571,1.4067975124989132,0.7040305895197386,1.6149628543553889,0.051161872408338895,-0.36782703117325066,-1.5996054984454493,HELLO
483954,0.0535,0.0,0.0,0.0,0.1391,1.4067975124989132,0.47612159629164263,1.5468314783514778,0.13993672149637565,-0.40873010245742974,-1.5996054984454493,HELLO
483974,0.0547,0.0,0.0,0.0044,0.0553,1.4067975124989132,0.13212412711215613,1.4343354854147872,0.041555638738364736,-0.48630489282397643,-1.5996054984454493,HELLO
483994,0.0531,0.0,0.0,0.0,0.1248,1.4067975124989132,0.41124862443645366,1.4569139065323622,0.03128690619459934,-0.8158802143206381,-1.5996054984454493,HELLO
484014,0.0527,0.0,0.0,0.0,0.1433,1.0501570456577645,0.3890552393281002,1.405815374529429,0.2098303526813597,-1.365015700066859,-1.5996054984454493,HELLO
484034,0.0504,0.0,0.0,0.0,0.0565,0.4268467752013022,0.31649994185848096,1.243013074892176,0.2840302265459872,-1.5855161648057094,-1.5996054984454493,HELLO
484054,0.0492,0.0,0.0,0.0,0.114,-0.272249594458904,0.37966573024379674,1.1118997873497651,0.3744613228185021,-1.4693890543782127,-1.5996054984454493,HELLO
484074,0.0535,0.0,0.0,0.0,0.1176,-0.893533498626496,0.10651637506405537,1.0211899902282786,0.5231923199846531,-1.2488885896393616,-1.5996054984454493,HELLO
484094,0.0566,0.0,0.0,0.0,0.1709,-1.376619221893143,0.03908262800405662,0.886115576174013,0.5930859511696371,-1.0208657209861793,-1.5996054984454493,HELLO
484114,0.0705,0.0,0.0,0.0,0.2146,-1.752307531849671,-0.09749204958581406,0.8338287062175226,0.5556547648004274,-0.8741788446567093,-1.5996054984454493,HELLO
484134,0.0624,0.0,0.0,0.0,0.2008,-2.0449148239625226,-0.10517437520024438,0.7641128796088694,0.5043111020816003,-0.7575815839845665,-1.5996054984454493,HELLO
484154,0.0705,0.0,0.0,0.0063,0.2331,-2.4299244188478535,-0.23492031891062135,0.7193521500249045,0.5814922208782889,-0.503230301631223,-1.5996054984454493,HELLO
484174,0.0705,0.0,0.0,0.0,0.2086,-2.645935065241413,-0.7411002177280792,0.586258299226566,0.5132548368777833,-0.19763264261149385,-1.5996054984454493,HELLO
484194,0.0833,0.0,0.0,0.0,0.1984,-2.645935065241413,-0.8102411482579512,0.5712060184815162,0.44037996076073826,0.035561878732791874,-1.1861310788905852,HELLO
484214,0.0818,0.0,0.0,0.0,0.2397,-2.645935065241413,-0.5951360310539051,0.4499955472187435,0.4294487293431816,-0.3969763463412863,0.09451855870996688,HELLO
484234,0.0779,0.0,0.0,0.0,0.2158,-2.645935065241413,-1.184967919895158,0.17588559259835645,-0.15752527283592624,-0.2385357138956729,0.4159998657801361,HELLO
484254,0.0829,0.0,0.0,0.0,0.2792,-2.645935065241413,-0.10773515040505417,0.5700176805279592,-0.12473157858325593,0.4807941604123049,0.6299910127427414,HELLO
484274,0.0826,0.0,0.0,0.0,0.2284,-2.645935065241413,-0.34930161139213767,0.45752168759126866,-0.09160663489369,0.8893547230094502,1.6976386766332117,HELLO
484294,0.0868,0.0,0.0,0.0,0.2906,-2.341980121910889,-0.41332099151239,0.6032911432275441,-0.34004371256543425,0.9970191290333241,1.6976386766332117,HELLO
484314,0.0783,0.0,0.0,0.0,0.2451,-1.951701974674495,-0.25455292881416497,0.545062583503271,-0.532499635401812,1.1432358551181478,1.6976386766332117,HELLO
484334,0.0775,0.0,0.0,0.0,0.2146,-1.665984327943802,0.09627327424481526,0.6440907462996537,-0.5361433792076642,1.5094828956971775,1.6976386766332117,HELLO
484354,0.0705,0.0,0.0,0.0,0.1846,-1.1131916043400216,0.06042242137747439,0.7435150217472218,-0.37648115062395676,1.8935956455727445,1.6976386766332117,HELLO
484374,0.0729,0.0,0.0,0.0,0.2056,-0.6600961021486532,-0.12139261816404162,0.7969902296572683,-0.26418759151632826,2.146536477192151,1.6976386766332117,HELLO
484394,0.0744,0.0,0.0,0.0,0.2164,-0.5522934155807607,-0.2707711717779622,0.711429897001194,-0.17475024355450045,2.3350667252950914,1.6976386766332117,HELLO
484414,0.0748,0.0,0.0,0.0,0.2068,-0.3464146006315519,-0.1640722049108762,0.6730069698361972,-0.20390019400131834,2.344939880432652,1.6976386766332117,HELLO
484434,0.0764,0.0,0.0,0.0,0.2242,0.14112912847060918,0.014328467690892466,0.6860786873253196,-0.16083776720488283,2.344939880432652,1.6976386766332117,HELLO
484454,0.0798,0.0,0.0,0.0,0.1607,0.7863241548468691,0.5051437152794898,0.6120056215536257,0.019030677029460204,2.344939880432652,1.6976386766332117,HELLO
484474,0.0783,0.0,0.0,0.0,0.1643,0.906690312405757,0.19614350723240753,0.4341510411713223,0.02267442083531242,2.344939880432652,1.6976386766332117,HELLO
484494,0.0756,0.0,0.0,0.0,0.1409,1.316421576015304,0.22431203448531903,0.21787353362402267,-0.14295029761251718,2.344939880432652,1.6976386766332117,HELLO
484514,0.0756,0.0,0.0,0.0,0.2074,1.4067975124989132,0.9985197380728977,0.43850828033436307,0.09720554413683556,2.344939880432652,1.6976386766332117,HELLO
484534,0.081,0.0,0.0,0.0,0.1691,1.4067975124989132,1.8615009820938921,0.44444997010214626,0.8332417929189895,1.7323341116592568,1.6976386766332117,HELLO
484554,0.0814,0.0,0.0,0.0,0.1451,1.4067975124989132,1.9741750911055351,0.05467512133558426,0.8209855637538503,1.0393326510514405,1.6976386766332117,HELLO
484574,0.0829,0.0,0.0,0.0,0.1667,1.4067975124989132,1.8623545738288287,0.03566171407867869,0.23003656833199487,0.9768026685135571,1.6976386766332117,HELLO
484594,0.0798,0.0,0.0,0.0,0.1098,1.4067975124989132,2.5085235171759037,-0.220227058587174,0.010749441107068542,1.0562580598586868,1.2851534303308714,HELLO
484614,0.0837,0.0,0.0,0.0,0.1679,1.4067975124989132,2.3062222759959083,-0.116445543976565,0.05679311283556521,0.8225933882697556,0.5604191606485817,HELLO
484634,0.0884,0.0,0.0,0.0,0.1745,1.4067975124989132,1.3194702304090933,0.19054176069222123,-0.017406761029062492,-0.1313414581164449,-0.1913525112693532,HELLO
484654,0.0849,0.0,0.0,0.0,0.1272,1.4067975124989132,1.0599783429883394,0.15647607269026562,-0.13996905268045623,-0.882171398815687,-0.9243298913893394,HELLO
484674,0.0845,0.0,0.0,0.0,0.1912,1.4067975124989132,0.9225500736635321,0.17548947994717096,-0.22112516471989271,-0.842678778265445,-1.38627380031786,HELLO
484694,0.0837,0.0,0.0,0.0,0.102,1.4067975124989132,0.828654982820496,0.15409939678315226,-0.32083124522548595,-0.5671707349030431,-1.5996054984454493,HELLO
484714,0.0814,0.0,0.0,0.0,0.1206,1.4067975124989132,0.8636522439529003,0.226191899298919,-0.4679059952071585,-0.5737528383280835,-1.5996054984454493,HELLO
484734,0.0826,0.0,0.0,0.0,0.1565,1.4067975124989132,0.912306972844292,0.2772904313018523,-0.5891432891109697,-1.0575374400685469,-1.5996054984454493,HELLO
484754,0.0814,0.0,0.0,0.0,0.1661,1.4067975124989132,1.0685142603377062,0.2654070517662864,-0.6487681877521884,-1.5925684184753957,-1.5996054984454493,HELLO
484774,0.081,0.0,0.0,0.0,0.1613,1.4067975124989132,1.1461911082169451,0.3711691296328233,-0.6527431809949362,-2.126659096392953,-1.5996054984454493,HELLO
484794,0.0798,0.0,0.0,0.0,0.1188,1.4067975124989132,1.0386385496149215,0.407611493541892,-0.6153119946257268,-2.356562566024718,-1.5996054984454493,HELLO
484814,0.0764,0.0,0.0,0.0,0.1272,0.8985848472502764,0.9976661463379602,0.47019729242920555,-0.5987495227809438,-2.356562566024718,-1.5996054984454493,HELLO
484834,0.074,0.0,0.0,0.0,0.0942,0.311343896735703,0.9319395827478356,0.5296141901070351,-0.521899653421151,-2.356562566024718,-1.5996054984454493,HELLO
484854,0.0725,0.0,0.0,0.0,0.1044,-0.13891469265124712,0.9874230455187201,0.5308025280605921,-0.3652186697695043,-2.356562566024718,-1.5996054984454493,HELLO
484874,0.0748,0.0,0.0,0.0,0.129,-0.48137059547030475,0.47441441282176944,0.7514372747709325,-0.17110649974864822,-2.356562566024718,-1.5996054984454493,HELLO
484894,0.0787,0.0,0.0,0.0,0.1056,-1.0248420341452824,0.38051932197873334,0.7161832488154202,0.013068187165338266,-2.3330550537924313,-1.5996054984454493,HELLO
484914,0.0853,0.0,0.0,0.0,0.1445,-1.5715556588824524,0.13809926925671323,0.783126286865775,0.02996190844701685,-1.9315467448649721,-1.5996054984454493,HELLO
484934,0.0891,0.0,0.0,0.0,0.1074,-1.835793822951122,-0.06164119671847319,0.8397703959853058,0.03989939155388662,-1.4905458153872704,-1.5996054984454493,HELLO
484954,0.0922,0.0,0.0,0.0,0.1499,-2.0124929633406,-0.21614130074201432,0.9633575431551913,0.12469924739917516,-1.1778959026978557,-1.5996054984454493,HELLO
484974,0.0946,0.0,0.0,0.0,0.1691,-2.558801314819996,-0.505508898885552,1.0184172016699802,0.32908014996379664,-0.9841940019038119,-1.5996054984454493,HELLO
484994,0.0988,0.0,0.0,0.0,0.1715,-2.645935065241413,-0.7684151532460533,0.9146356870593711,0.30688643769178775,-0.6894097985109346,-1.290323994823071,HELLO
485014,0.1081,0.0,0.0,0.0,0.1553,-2.645935065241413,-0.9544981514622513,0.9590003039921505,0.2661427569536218,-0.4143719053931785,-0.7571596117128514,HELLO
485034,0.1101,0.0,0.0,0.0,0.1924,-2.645935065241413,-1.044978875365541,0.9399868967352449,0.16312418207907178,-0.25640142319221104,-0.23949227622550168,HELLO
485054,0.1108,0.0,0.0,0.0,0.1715,-2.645935065241413,-0.8665782027637723,0.9193890388735975,0.0962117958261487,-0.011923295976427816,0.3948975030596328,HELLO
485074,0.1135,0.0,0.0,0.0082,0.226,-2.645935065241413,-0.7325643003787123,0.948305262410141,0.038905643243199756,0.27251760203424336,1.054676062492873,HELLO
485094,0.1042,0.0,0.0,0.0,0.2158,-2.645935065241413,-0.4466110691749201,0.9633575431551913,0.03393690168976469,0.4728016062533272,1.676866038330216,HELLO
485114,0.1112,0.0,0.0,0.0,0.1799,-2.645935065241413,-0.20419101645290005,0.9249346159901947,0.059443108330730555,0.7736977628265986,1.6976386766332117,HELLO
485134,0.1093,0.0,0.0,0.0,0.1816,-2.5535327624689335,0.06212960484734758,0.8643293803588086,0.09256805202029648,1.2617137167688737,1.6976386766332117,HELLO
485154,0.1108,0.0,0.0,0.0,0.2038,-2.0959792544420504,0.3480828360511388,0.7843146248193315,0.19459287858415922,1.7243415575002792,1.6976386766332117,HELLO
485174,0.1073,0.0,0.0,0.0,0.1715,-1.6388310196729419,0.6169642325561963,0.6389412818342419,0.4542924371103559,2.049685526795129,1.6976386766332117,HELLO
485194,0.1073,0.0,0.0,0.0,0.2313,-1.007820557318773,0.6741548787969549,0.7221249385832029,0.7285669708599615,2.2203500656015316,1.6976386766332117,HELLO
485214,0.1101,0.0,0.0,0.0,0.2337,-0.34438823434268195,0.7979256803627748,0.6147784101119246,0.8289355502393461,2.264074038353585,1.6976386766332117,HELLO
485234,0.1124,0.0,0.0,0.0,0.2272,0.14193967498615714,0.7800002539291043,0.480892334011215,0.6722545665876993,2.344939880432652,1.6976386766332117,HELLO
485254,0.1077,0.0,0.0,0.0,0.2182,0.885210829743733,1.176066818939729,0.3335384277701976,0.3234489095365707,2.344939880432652,1.6976386766332117,HELLO
485274,0.1085,0.0,0.0,0.0,0.1355,1.4067975124989132,2.3420731288632495,0.19846401371593184,0.19658037520553331,2.344939880432652,1.6976386766332117,HELLO
485294,0.107,0.0,0.0,0.0,0.1469,1.4067975124989132,2.2183023272974283,-0.044353041460798465,0.2701177501963696,2.344939880432652,1.6976386766332117,HELLO
485314,0.1077,0.0,0.0,0.0,0.129,1.4067975124989132,2.294271991706794,-0.252312183333202,0.42381748891595533,2.344939880432652,1.6976386766332117,HELLO
485334,0.1023,0.0,0.0,0.0,0.2086,1.4067975124989132,1.5371361228179492,-0.10020492527795828,0.39798003283809386,1.6021024938923873,1.6976386766332117,HELLO
485354,0.1035,0.0,0.0,0.0,0.1319,1.4067975124989132,1.217892813951627,0.19371066190170533,0.4334237225859295,0.25371159224841383,1.6976386766332117,HELLO
485374,0.0988,0.0,0.0,0.0,0.1535,1.4067975124989132,1.2972768453007388,0.07289630329011863,0.40493627101290264,-0.4670287327935012,1.6976386766332117,HELLO
485394,0.0992,0.0,0.0,0.0,0.1709,1.4067975124989132,1.8239429457566771,-0.23527933933222428,0.3598863475950932,0.07505449928303361,1.6729093453201223,HELLO
485414,0.0911,0.0,0.0,0.0,0.205,1.4067975124989132,1.7138296119498446,-0.15407624583919044,0.1511992023508279,1.007832584660176,1.2241544130919162,HELLO
485434,0.0977,0.0,0.0,0.0,0.1535,1.4067975124989132,1.5217714715890887,0.057844022545068374,-0.009125525106671011,0.9424817006544184,0.657687863813402,HELLO
485454,0.0961,0.0,0.0,0.0,0.1212,1.4067975124989132,1.5328681641432662,-0.012267916714770505,-0.005813030737714419,-0.006751643285324495,0.09451855870996688,HELLO
485474,0.0957,0.0,0.0,0.0,0.1673,1.4067975124989132,1.4014150369630152,-0.08950988369594903,0.04553063198111294,-0.9320073247481351,-0.47392633707359444,HELLO
485494,0.0938,0.0,0.0,0.0,0.0966,1.4067975124989132,0.9874230455187201,-0.1818041314221776,-0.06709417656341118,-1.0241567726986995,-1.0618249734901197,HELLO
485514,0.0922,0.0,0.0,0.0,0.1457,1.4067975124989132,1.0283954487956815,-0.16120627356053008,-0.37151240907052185,-0.42095400881821887,-1.5053043150381995,HELLO
485534,0.0922,0.0,0.0,0.0,0.1535,1.4067975124989132,1.1350944156627676,-0.05742475894992107,-0.6375057068977359,-0.19951324359007686,-1.5996054984454493,HELLO
485554,0.088,0.0,0.0,0.0,0.1008,1.4067975124989132,1.4278763807460524,-0.05623642099636439,-0.7988241826659219,-0.6273499662176973,-1.5996054984454493,HELLO
485574,0.088,0.0,0.0,0.0,0.1439,1.4067975124989132,1.6352991723356693,-0.0475219426702828,-0.8733553059674452,-1.2357243827892812,-1.5996054984454493,HELLO
485594,0.0872,0.0,0.0,0.0,0.1565,1.4067975124989132,1.6122521954923783,0.08477968282568457,-0.8673928161033233,-1.8732481145289006,-1.5996054984454493,HELLO
485614,0.0845,0.0,0.0,0.0,0.0709,1.4067975124989132,1.3758072849149143,0.16875556487701704,-0.9333114540455593,-2.356562566024718,-1.5996054984454493,HELLO
485634,0.0826,0.0,0.0,0.0,0.1445,1.2904840875177659,1.4859206187217477,0.24956254571886516,-0.9541801685699859,-2.356562566024718,-1.5996054984454493,HELLO
485654,0.0837,0.0,0.0,0.0,0.1092,0.787134701362417,1.5422576732275697,0.4381121676831776,-0.7955116882969653,-2.356562566024718,-1.5996054984454493,HELLO
485674,0.0826,0.0,0.0,0.0,0.1445,0.13383420983067648,1.1922850619035261,0.5672448919696609,-0.5944432801013002,-2.356562566024718,-1.5996054984454493,HELLO
485694,0.0891,0.0,0.0,0.0,0.1505,-0.10527701225600251,1.071075035542516,0.678552546952795,-0.49374345128501995,-2.356562566024718,-1.5996054984454493,HELLO
485714,0.0841,0.0,0.0,0.0,0.1577,-0.49798679903904003,0.9635224769404925,0.7185599247225336,-0.3085750160603466,-2.356562566024718,-1.5996054984454493,HELLO
485734,0.081,0.0,0.0,0.0,0.1697,-1.0337580458163114,0.8081687811820149,0.7332160928163979,-0.14427529536009986,-2.1957711823558763,-1.5996054984454493,HELLO
485754,0.0837,0.0,0.0,0.0,0.1074,-1.4394365768481179,0.331011001352405,0.8385820580317493,-0.011113021728044747,-1.772635962174713,-1.5996054984454493,HELLO
485774,0.0833,0.0,0.0,0.0,0.1601,-1.8070194216491657,0.013474875955955869,0.8805699990574153,0.0021369557477816225,-1.3941650152348946,-1.5996054984454493,HELLO
485794,0.0876,0.0,0.0,0.0,0.12,-2.048967556540263,-0.18541199828429303,0.9380063334793175,-0.05616294514585455,-1.025097073187991,-1.5996054984454493,HELLO
485814,0.0907,0.0,0.0,0.0,0.1158,-2.4274927793012098,-0.33735132710302435,1.0037610335761153,-0.012438019475627603,-0.6992829536484954,-1.5996054984454493,HELLO
485834,0.1,0.0,0.0,0.0,0.1254,-2.5900073556685963,-0.5311166509336527,1.1178414771175484,0.044205634233530085,-0.45104362447554613,-1.5996054984454493,HELLO
485854,0.1062,0.0,0.0,0.0,0.1715,-2.645935065241413,-1.0287606324017438,1.2307335827054244,0.08693681159307017,-0.35842402628033593,-1.2049253706885337,HELLO
485874,0.1104,0.0,0.0,0.0,0.1691,-2.645935065241413,-0.9647412522814923,1.1380432223280104,0.03526189943734718,-0.22819240851346678,-0.3255503491950546,HELLO
485894,0.1089,0.0,0.0,0.0,0.1709,-2.645935065241413,-0.7470753598726354,1.1721089103299658,0.09952429019510528,0.04120368166854062,0.5432734909381727,HELLO
485914,0.1077,0.0,0.0,0.0,0.1781,-2.645935065241413,-0.6395228012706129,1.1903300922845004,0.10250553512716626,0.3703088529205563,1.1394152377923945,HELLO
485934,0.105,0.0,0.0,0.0,0.1439,-2.645935065241413,-0.22211644288657048,1.128140406048372,0.1253617462729664,0.8418695483002308,1.6976386766332117,HELLO
485954,0.1039,0.0,0.0,0.0,0.1876,-2.3391432091064703,-0.08895613223644715,1.071496296928841,0.21016160211825533,1.4431917112021284,1.6976386766332117,HELLO
485974,0.105,0.0,0.0,0.0,0.1439,-1.713806572361138,0.09115172383519472,1.032677257112659,0.3545863566047625,1.7793491361238305,1.6976386766332117,HELLO
485994,0.105,0.0,0.0,0.0,0.1278,-1.1853302442237994,0.19102195682278794,0.9744486973883862,0.47847364600373893,1.7779386853898929,1.6976386766332117,HELLO
486014,0.105,0.0,0.0,0.0,0.1236,-0.7735726143253823,0.49746138966505943,0.802535806773866,0.5261735649167137,1.7257520082342162,1.6976386766332117,HELLO
486034,0.1015,0.0,0.0,0.0,0.1571,-0.40234231020436856,0.5461161185564511,0.7252938397926872,0.49437361897473064,1.7976849956650143,1.6976386766332117,HELLO
486054,0.1,0.0,0.0,0.0,0.1188,0.0758801339689899,0.4846575136410095,0.7296510789557281,0.42315499004216406,1.771356581964853,1.6976386766332117,HELLO
486074,0.0977,0.0,0.0,0.0,0.1206,0.4572422695343549,0.8218262489410023,0.6409218450901694,0.5003361088388526,1.6157368509871137,1.6976386766332117,HELLO
486094,0.0938,0.0,0.0,0.0,0.1343,0.7818661490113548,0.9080390141696081,0.5969533408085754,0.7173044900055092,1.488326134688119,1.6976386766332117,HELLO
486114,0.088,0.0,0.0,0.0,0.1463,0.9026375798280167,0.8619450604830271,0.42266377428694185,0.8011105975401108,1.6674533778981449,1.6976386766332117,HELLO
486134,0.0942,0.0,0.0,0.0,0.1074,1.4067975124989132,0.8278013910855594,0.2887776981862328,0.501661106586435,1.9565957783552732,1.6976386766332117,HELLO
486154,0.0918,0.0,0.0,0.0,0.108,1.4067975124989132,1.2716690932526382,0.2004445769718595,0.28999271641010915,1.754431173157606,1.6976386766332117,HELLO
486174,0.088,0.0,0.0,0.0,0.0936,1.4067975124989132,1.2972768453007388,0.37631859409823504,0.1995616201375943,1.021937091999548,1.6976386766332117,HELLO
486194,0.0791,0.0,0.0,0.0,0.0661,1.4067975124989132,1.6011555029382016,0.24560141920700984,0.5089485941981395,0.28662210937361543,1.6976386766332117,HELLO
486214,0.0783,0.0,0.0,0.0,0.1367,1.4067975124989132,1.581522893034657,0.36166242600437026,0.5877859601793064,0.009703615277276055,1.6976386766332117,HELLO
486234,0.0795,0.0,0.0,0.0,0.1284,1.4067975124989132,1.5328681641432662,0.2503547710212363,0.4907298751688784,0.41967462860835897,1.6976386766332117,HELLO
486254,0.0752,0.0,0.0,0.0,0.1649,1.4067975124989132,1.8444291473951582,0.21193184385623973,0.15550544503047137,1.1789672737112242,1.6976386766332117,HELLO
486274,0.0733,0.0,0.0,0.0,0.1691,1.4067975124989132,2.190133800044518,0.04437619240476028,-0.005813030737714419,1.3942960857589715,1.576629815407825,HELLO
486294,0.0829,0.0,0.0,0.0,0.0912,1.4067975124989132,2.073191732358191,0.05982458580099603,-0.033306734000054024,0.8019067775053429,0.987412281321268,HELLO
486314,0.0756,0.0,0.0,0.0,0.1032,1.4067975124989132,1.7855313176845264,0.025758897799040417,0.0021369557477816225,-0.048124864814149494,0.17859828517447263,HELLO
486334,0.0756,0.0,0.0,0.0,0.1385,1.4067975124989132,1.3775144683847886,0.06735072617352116,-0.11777534040844713,-0.5521259270743797,-0.5187688578546642,HELLO
486354,0.069,0.0,0.0,0.0,0.1337,1.4067975124989132,1.3382492485777002,0.04754509361424462,-0.24696262079775402,-0.658379882364316,-1.0677600130052614,HELLO
486374,0.0674,0.0,0.0,0.0,0.1805,1.4067975124989132,1.4261691972761792,0.09032525994228183,-0.26948758250665894,-0.49758849869547417,-1.5996054984454493,HELLO
486394,0.0736,0.0,0.0,0.0,0.1481,1.4067975124989132,1.457752091468837,0.16479443836516172,-0.27511882293388507,-0.6184171115694286,-1.5996054984454493,HELLO
486414,0.0764,0.0,0.0,0.0,0.1427,1.4067975124989132,1.3228845973488397,0.2697642909293272,-0.40529985163387905,-1.1656719963370663,-1.5996054984454493,HELLO
486434,0.0736,0.0,0.0,0.0,0.1463,1.4067975124989132,1.3647105923607377,0.35928575009725733,-0.5941120306644045,-1.7260910879547848,-1.5996054984454493,HELLO
486454,0.0729,0.0,0.0,0.0,0.1601,1.4067975124989132,1.7326086301184518,0.36166242600437026,-0.5831807992468477,-1.9795020698188373,-1.5996054984454493,HELLO
486474,0.074,0.0,0.0,0.0,0.1427,1.4067975124989132,1.675417983877693,0.514561909361985,-0.4026498561387137,-1.9729199663937969,-1.5996054984454493,HELLO
486494,0.0717,0.0,0.0,0.0,0.1212,1.3330377795840391,1.2050889379275769,0.6341879300200152,-0.39768111458527877,-1.8619645086574028,-1.5996054984454493,HELLO
486514,0.074,0.0,0.0,0.0,0.0906,1.0525886852044084,1.4347051146255463,0.5708099058303306,-0.421862323478662,-1.9790319195741914,-1.5996054984454493,HELLO
486534,0.0686,0.0,0.0,0.0,0.1397,0.609219741199617,1.6028626864080748,0.5181269232226547,-0.20655018949648368,-2.0937485792677513,-1.5996054984454493,HELLO
486554,0.0744,0.0,0.0,0.0,0.0379,0.3749717982062259,1.2076497131323867,0.585466073924195,-0.07040667093236778,-2.3499804625996776,-1.5996054984454493,HELLO
486574,0.069,0.0,0.0,0.0,0.1002,-0.1672838206954294,1.0557103843136555,0.5799204968075977,0.05613061396177396,-2.356562566024718,-1.5996054984454493,HELLO
486594,0.0713,0.0,0.0,0.0,0.0607,-0.806805021462853,1.0659534851328956,0.38463695977313117,0.09256805202029648,-2.356562566024718,-1.5996054984454493,HELLO
486614,0.0709,0.0,0.0,0.0,0.1284,-1.2931329307916921,0.7108593233992324,0.500301853919306,0.017374429844981727,-2.313778893761956,-1.5996054984454493,HELLO
486634,0.0713,0.0,0.0,0.0,0.1535,-1.800129776267007,0.5341658342673379,0.450391659869929,0.09323055089408773,-1.8215315876178695,-1.5996054984454493,HELLO
486654,0.0764,0.0,0.0,0.0,0.1421,-2.1312380278683913,0.31308557491873457,0.5553615124340949,0.22771782227372514,-1.3137693234004735,-1.5996054984454493,HELLO
486674,0.0775,0.0,0.0,0.0,0.1457,-2.645935065241413,-0.15297551235669854,0.491191262942039,0.41553625299356367,-0.891104253463956,-1.5996054984454493,HELLO
486694,0.0798,0.0,0.0,0.0,0.1799,-2.645935065241413,-0.3825916890546687,0.6983581795120716,0.29032396584700476,-0.5041706021205142,-1.5883948682501818,HELLO
486714,0.0798,0.0,0.0,0.0,0.1757,-2.645935065241413,-0.7590256441617497,0.7213327132808319,0.19194288308899388,-0.2173789528866147,-1.051273792129868,HELLO
486734,0.0744,0.0,0.0,0.0,0.1212,-2.645935065241413,-0.9092577895106069,0.8615565918005097,-0.0329754845631584,0.04637533435964368,-0.5843840169387295,HELLO
486754,0.0837,0.0,0.0,0.0,0.1092,-2.645935065241413,-0.785486987944787,1.1008086331165703,-0.13135656732116913,0.1916517599551766,-0.0014312467848222009,HELLO
486774,0.0814,0.0,0.0,0.0,0.1739,-2.645935065241413,-0.975837944835669,1.1103153367450231,-0.16945025256416993,0.40980147347079854,0.48359337136924885,HELLO
486794,0.0845,0.0,0.0,0.0,0.1882,-2.645935065241413,-0.7419538094630158,1.2065707109831072,-0.05583169570895893,0.5818764630111382,0.7404486926078765,HELLO
486814,0.0845,0.0,0.0,0.0,0.1355,-2.645935065241413,-0.6668377367885868,1.1942912187963557,0.1011805373795834,0.601622773286259,1.4163837484990018,HELLO
486834,0.0806,0.0,0.0,0.0,0.1882,-2.4765308434918674,-0.5959896227888417,1.1950834440987266,0.25852401990502133,0.7741679130712448,1.6976386766332117,HELLO
486854,0.0818,0.0,0.0,0.0,0.1385,-2.3059108019689996,-0.3236938593440369,1.0889252535810043,0.342661376876519,1.1192581926412153,1.6976386766332117,HELLO
486874,0.0826,0.0,0.0,0.0,0.1954,-1.825256718248997,-0.2835750478020121,1.077437986696624,0.43640496751799046,1.4572962185415006,1.6976386766332117,HELLO
486894,0.0826,0.0,0.0,0.0,0.193,-1.330823343764677,-0.2793070891273291,1.0120793992510115,0.47714864825615644,1.5014903415381997,1.6976386766332117,HELLO
486914,0.0829,0.0,0.0,0.0,0.1888,-0.9470295686526682,-0.04030140334505543,1.0061377094832287,0.4880798796737131,1.400878189184012,1.6976386766332117,HELLO
486934,0.0826,0.0,0.0,0.0,0.1206,-0.7298031024857868,0.04249699494380301,0.8306598050080387,0.5059673492660786,1.5057216937400115,1.6976386766332117,HELLO
486954,0.0806,0.0,0.0,0.0,0.1391,-0.3999106706577242,0.4590497615929088,0.5577381883412078,0.5056360998291829,1.9523644261534614,1.6976386766332117,HELLO
486974,0.0802,0.0,0.0,0.0,0.1906,0.37861925752619224,0.5956244391827794,0.5240686129904379,0.5274985626642965,2.344939880432652,1.6976386766332117,HELLO
486994,0.0822,0.0,0.0,0.0,0.1799,1.1887604998164838,0.7646356027002437,0.35057127177117553,0.4128862574983987,2.344939880432652,1.6976386766332117,HELLO
487014,0.0822,0.0,0.0,0.0,0.1242,1.4067975124989132,0.9831550868440371,0.2780826566042235,0.32079891404140537,1.934968867101569,1.6976386766332117,HELLO
487034,0.0791,0.0,0.0,0.0,0.1319,1.4067975124989132,1.4150725047220025,0.12795596180490726,0.41752374961493777,1.3839527803767653,1.6976386766332117,HELLO
487054,0.0775,0.0,0.0,0.0,0.1367,1.4067975124989132,1.999782843153636,0.1049814280361466,0.6182609083737071,0.9673996636206423,1.6976386766332117,HELLO
487074,0.0725,0.0,0.0,0.0,0.1272,1.4067975124989132,1.5559151409865561,0.11369590636222819,0.7057107597141609,0.5705928571396407,1.6976386766332117,HELLO
487094,0.0686,0.0,0.0,0.0,0.2128,1.4067975124989132,1.3228845973488397,0.05625957194032621,0.5288235604118791,0.595040669861219,1.6976386766332117,HELLO
487114,0.0667,0.0,0.0,0.0,0.1529,1.4067975124989132,1.7983351937085772,0.0011999134255375893,0.2628302625846652,0.9862056734064718,1.6976386766332117,HELLO
487134,0.0694,0.0,0.0,0.0,0.1403,1.4067975124989132,1.0932684206508705,0.1917300986457777,0.0326119039421822,0.11689787105650429,1.6976386766332117,HELLO
487154,0.0674,0.0,0.0,0.0,0.0906,1.4067975124989132,2.5375456361637507,0.028531686357339266,-0.06709417656341118,-0.6268798159730518,1.4787016634079886,HELLO
487174,0.0698,0.0,0.0,0.0,0.0906,1.4067975124989132,1.991246925804269,0.18895731008747907,-0.3840998876725568,-0.5963200500710788,0.778367000621281,HELLO
487194,0.0659,0.0,0.0,0.0,0.0757,1.4067975124989132,1.6284704384561755,0.4646517153126083,-0.33838746538095593,-0.6489768774714012,0.15584730036642983,HELLO
487214,0.0632,0.0,0.0,0.0,0.1092,1.4067975124989132,0.9345003579526454,0.6524091119745498,-0.2843938071669636,-0.34008816673915215,-0.4310621627975718,HELLO
487234,0.0616,0.0,0.0,0.0,0.0517,1.4067975124989132,0.4727072293518953,0.5743749196910001,-0.4149060853038532,0.22315182634644065,-1.0694086350928005,HELLO
487254,0.0636,0.0,0.0,0.0,0.1302,1.4067975124989132,1.1752132272047924,0.5177308105714693,-0.4414060402555059,0.5508465468645193,-1.2240493869039897,HELLO
487274,0.0651,0.0,0.0,0.0,0.1056,1.4067975124989132,1.2375254238551705,0.33235008981664116,-0.3569374338471128,0.2320846809947097,-1.4067167142033477,HELLO
487294,0.0671,0.0,0.0,0.0,0.1074,1.4067975124989132,1.1086330718797301,0.3775069320517915,-0.36621241808019134,-0.6264096657284061,-1.5996054984454493,HELLO
487314,0.0678,0.0,0.0,0.0,0.1469,1.4067975124989132,1.000226921542771,0.30264164097772633,-0.3864186337308265,-1.6278296868238258,-1.5996054984454493,HELLO
487334,0.0671,0.0,0.0,0.0,0.1559,1.4067975124989132,1.0531496091088457,0.25471201018427714,-0.4304748088379491,-1.8130688832142463,-1.5996054984454493,HELLO
487354,0.0667,0.0,0.0,0.0,0.1212,1.4067975124989132,0.912306972844292,0.35809741214370044,-0.5195809073628813,-1.4778517587818356,-1.5996054984454493,HELLO
487374,0.0663,0.0,0.0,0.0,0.1325,1.4067975124989132,1.0540032008437823,0.4179104224727156,-0.5851682958682218,-1.2319631808321154,-1.5996054984454493,HELLO
487394,0.069,0.0,0.0,0.0,0.087,1.4067975124989132,0.9319395827478356,0.5791282715052267,-0.6192869878684747,-1.3673664512900874,-1.5996054984454493,HELLO
487414,0.074,0.0,0.0,0.0,0.1343,1.4023395066633988,1.1982602040480832,0.5826932853658966,-0.5457496128776383,-1.775927013887233,-1.5996054984454493,HELLO
487434,0.0647,0.0,0.0,0.0,0.0361,1.0055769873026208,1.2494757081442847,0.6329995920664587,-0.32281874184686005,-2.1078530866071232,-1.5996054984454493,HELLO
487454,0.0643,0.0,0.0,0.0,0.105,0.49736432205398373,0.7825610291339141,0.7031115313262978,-0.2850563060407548,-1.9296661438863891,-1.5996054984454493,HELLO
487474,0.0651,0.0,0.0,0.0,0.1134,0.29067496058922737,0.5819669714237921,0.9106745605475158,-0.3446812046819735,-1.995957328381438,-1.5996054984454493,HELLO
487494,0.0632,0.0,0.0,0.0,0.0721,-0.34438823434268195,0.4266132756653143,0.8888883647323114,-0.30658751943897267,-2.047673855292469,-1.5996054984454493,HELLO
487514,0.062,0.0,0.0,0.0,0.0583,-0.8278792308671027,0.19528991549747093,0.9570197407362226,-0.37482490343947844,-1.73878514456022,-1.5996054984454493,HELLO
487534,0.0682,0.0,0.0,0.0,0.0733,-1.167092947623968,0.0732262974015243,1.0580284667885331,-0.3509749439829909,-1.3659560005561504,-1.5996054984454493,HELLO
487554,0.0667,0.0,0.0,0.0,0.099,-1.5079277574119294,-0.04456936201973936,1.0671390577658002,-0.26451884095322403,-0.8628952387852118,-1.5996054984454493,HELLO
487574,0.0729,0.0,0.0,0.0,0.1912,-1.5067119376386073,-0.2605280709587221,1.217661865216302,-0.19595020751582265,-0.6687231877465224,-1.5996054984454493,HELLO
487594,0.0694,0.0,0.0,0.0,0.1781,-1.7211014910010707,-0.35954471221137774,1.2628187074514523,-0.12075658534050791,-0.778268194748979,-1.5996054984454493,HELLO
487614,0.0748,0.0,0.0,0.0,0.1894,-2.056262475180196,-0.39539556507871865,1.1915184302380568,-0.018731758776644982,-0.6701336384804595,-1.5996054984454493,HELLO
487634,0.0744,0.0,0.0,0.0,0.208,-2.2945631507513267,-0.756464868956939,1.2129085134020754,0.053149369029713,-0.470789934750667,-1.459802345422114,HELLO
487654,0.0729,0.0,0.0,0.0,0.1739,-2.0185720622072103,-1.0808297282328818,1.2140968513556323,0.06143060495210429,-0.517334808970595,-0.957302333140126,HELLO
487674,0.0771,0.0,0.0,0.0,0.2068,-2.645935065241413,-0.6617161863789662,1.4034386986223157,0.1498742046032454,-0.8779400466138753,-0.24180034714805665,HELLO
487694,0.0725,0.0,0.0,0.0,0.1619,-2.5904126289263703,-1.1730176356060447,0.9645458811087477,-0.05616294514585455,-0.8967460563997047,0.24685123959860109,HELLO
487714,0.0705,0.0,0.0,0.0,0.1433,-1.9022586372260633,-0.8563351019445322,1.240240286333877,-0.16282526382625673,0.0684723958579935,0.07044867623189238,HELLO
487734,0.0756,0.0,0.0,0.0,0.1745,-1.14520819170417,-1.1610673513169305,1.1392315602815668,-0.009125525106671011,0.6119660786684651,0.2145382466828301,HELLO
487754,0.0744,0.0,0.0,0.0,0.1846,-0.8473323472402564,-1.0910728290521219,1.398289234156904,0.033605652252869066,0.4224955300762331,0.24981875935617157,HELLO
487774,0.0756,0.0,0.0,0.0,0.2445,-1.3859405068219455,-0.9323047663538978,1.5155385789078208,0.3340488915172317,-0.33209561258017467,0.4159998657801361,HELLO
487794,0.076,0.0,0.0,0.0,0.2571,-2.1685231675836025,-1.2524016669551568,1.4323549221588592,0.5649297490335059,-0.842678778265445,0.6593364859009415,HELLO
487814,0.0783,0.0,0.0,0.0,0.2661,-2.645935065241413,-1.5212830634602146,1.4145298528555106,0.5904359556744718,-1.0062910634021613,0.9006947595166993,HELLO
487834,0.0756,0.0,0.0,0.0,0.2667,-2.645935065241413,-1.4564100916050258,1.3099561129425306,0.46389867078033004,-0.9047386105586822,1.2976829581961704,HELLO
487854,0.0775,0.0,0.0,0.0,0.2691,-2.645935065241413,-1.2071613050035124,1.334118984664848,0.30556143994420487,-0.6231186140158858,1.6976386766332117,HELLO
487874,0.0756,0.0,0.0,0.0,0.2787,-2.411687122248022,-1.1038767050761729,1.2465780887528457,0.2167865908561685,-0.22067000459913502,1.6976386766332117,HELLO
487894,0.0756,0.0,0.0,0.0,0.2822,-1.8832107941106835,-0.9920561877994662,1.2358830471708362,0.1508679529139323,-0.05517711848383555,1.6976386766332117,HELLO
487914,0.074,0.0,0.0,0.0,0.2918,-1.3369024426312877,-0.7786582540652933,1.2259802308911982,0.18167415054522848,-0.20139384456865986,1.6976386766332117,HELLO
487934,0.0767,0.0,0.0,0.0,0.2505,-0.9247395394750964,-0.6241581500417522,1.2659876086609367,0.3198051657307185,-0.665902286278648,1.6976386766332117,HELLO
487954,0.0713,0.0,0.0,0.0,0.2798,-0.7245345501347243,-0.5908680723792211,1.128140406048372,0.40394252270221576,-1.0641195434935873,1.6976386766332117,HELLO
487974,0.0713,0.0,0.0,0.0,0.2804,-0.634158613651115,-0.6412299847404861,1.0913019294881177,0.19724287407932456,-1.1280599767654076,1.6976386766332117,HELLO
487994,0.0736,0.0,0.0,0.0,0.2403,-0.21753770465940978,-0.1768760809349261,1.0996202951630139,-0.36455617089571307,-0.7270218180825936,1.6976386766332117,HELLO
488014,0.076,0.0,0.0,0.0,0.2451,-0.0039586978124942695,0.24735901132860902,1.1368548843744535,-0.8319491263554876,0.09480080955815448,1.6976386766332117,HELLO
488034,0.0647,0.0,0.0,0.0,0.1852,0.24528435571853577,0.786828987808598,0.9689031202717886,-0.931655206861081,0.8799517181165355,1.6976386766332117,HELLO
488054,0.0705,0.0,0.0,0.0,0.2146,0.9168221438501076,1.2913017031561826,1.1570566295849156,-0.6557244259269972,1.227392748909735,1.6976386766332117,HELLO
488074,0.0698,0.0,0.0,0.0,0.1739,1.4067975124989132,1.2315502817106143,1.4236404438327777,-0.23040014895297106,0.8395187970770018,1.6976386766332117,HELLO
488094,0.0698,0.0,0.0,0.0,0.2134,1.4067975124989132,0.8132903315916353,1.3158978027103134,-0.24696262079775402,0.4737419067426185,1.6976386766332117,HELLO
488114,0.0671,0.0,0.0,0.0,0.214,1.241851296584882,0.8602378770131529,1.0461450872529674,-0.3105625126817205,0.7459588983925005,1.6976386766332117,HELLO
488134,0.0663,0.0,0.0,0.0,0.211,1.4067975124989132,1.280205010602005,1.2481625393575877,-0.24663137136085841,1.1714448697968922,1.6976386766332117,HELLO
488154,0.0674,0.0,0.0,0.0,0.223,1.4067975124989132,1.2050889379275769,1.3297617455018071,0.040230640990782246,0.7506604008389579,1.5904782409431555,HELLO
488174,0.0663,0.0,0.0,0.0,0.1948,1.4067975124989132,0.8380444919047996,1.2255841182400127,0.06739309481622623,0.23866678441975034,1.034233148607385,HELLO
488194,0.0612,0.0,0.0,0.0,0.1858,1.4067975124989132,0.5666023201949314,1.1970640073546541,0.0253244163304774,0.11595757056721293,0.2465215151810929,HELLO
488214,0.0667,0.0,0.0,0.0,0.1703,1.4067975124989132,0.1270025767025356,1.2232074423328994,-0.05053170471862823,0.4318985349691479,-0.28433479700657144,HELLO
488234,0.0616,0.0,0.0,0.0,0.1457,1.4067975124989132,-0.0744450727425231,1.2956960574998513,-0.06510667994203727,0.5494360961305822,-0.7235277211270491,HELLO
488254,0.064,0.0,0.0,0.0,0.1403,1.4067975124989132,-0.027497527321005525,1.3495673780610837,-0.05583169570895893,0.3632565992508705,-1.053581863052423,HELLO
488274,0.0636,0.0,0.0,0.0,0.208,1.4067975124989132,0.0177428346306398,1.3317423087577347,-0.04920670697104574,0.12018892276902461,-1.3655011620148643,HELLO
488294,0.0636,0.0,0.0,0.0,0.1781,1.4067975124989132,0.35832593687037895,1.2683642845680496,-0.024362999203871298,0.2245622770803782,-1.5996054984454493,HELLO
488314,0.0655,0.0,0.0,0.0,0.199,1.4067975124989132,0.5461161185564511,1.35788574373598,0.08826180934065266,0.30965947136125666,-1.5996054984454493,HELLO
488334,0.0636,0.0,0.0,0.0,0.1385,1.4067975124989132,0.2251656262202556,1.3368917732231465,0.061761854388999914,-0.060348771174938615,-1.5996054984454493,HELLO
488354,0.062,0.0,0.0,0.0,0.2032,1.4067975124989132,0.3924696062678466,1.1919145428892424,0.01041819167017292,-0.41249130441459575,-1.5996054984454493,HELLO
488374,0.0632,0.0,0.0,0.0,0.1649,1.1044636621994848,0.38222650544860653,1.0588206920909042,-0.04655671147588039,-0.22631180753488378,-1.5996054984454493,HELLO
488394,0.062,0.0,0.0,0.0,0.1343,0.8661629866283538,0.23455513530455913,1.0615934806492027,-0.10253786631124684,-0.014274047199656503,-1.5996054984454493,HELLO
488414,0.0655,0.0,0.0,0.0,0.187,0.5196543512315558,0.016889242895702258,1.0524828896719356,-0.25623760503083254,-0.28461043787095525,-1.5996054984454493,HELLO
488434,0.064,0.0,0.0,0.0,0.196,0.08358032586669659,0.04420417841367715,0.9966310058547757,-0.37780614837153925,-0.8487907314458397,-1.5996054984454493,HELLO
488454,0.0643,0.0,0.0,0.0,0.2092,-0.053807308518700636,0.5836741548936653,0.908693997291588,-0.35130619341988667,-1.4388292884762395,-1.5996054984454493,HELLO
488474,0.069,0.0,0.0,0.0,0.2098,-0.6487484509309802,0.3864944641232895,0.9447402485494713,-0.20953143442854466,-1.8991063779844162,-1.5996054984454493,HELLO
488494,0.0729,0.0,0.0,0.0,0.2493,-1.7774344738316612,0.16968216344937018,0.8777972104991164,-0.038937974427280156,-1.6960014722974577,-1.5996054984454493,HELLO
488514,0.0764,0.0,0.0,0.0,0.2074,-2.3873707267815805,-0.13419649418809151,0.9530586142243673,-0.033306734000054024,-0.8704176426995436,-1.5996054984454493,HELLO
488534,0.0822,0.0,0.0,0.0,0.2026,-2.645935065241413,-0.36808062956074467,1.138439334979196,0.12900549007881898,-0.29542389349780707,-1.5996054984454493,HELLO
488554,0.0833,0.0,0.0,0.0,0.1667,-2.645935065241413,-0.7197604243546615,1.1776544874465635,0.25554277497296035,0.02662902408452281,-1.5996054984454493,HELLO
488574,0.086,0.0,0.0,0.0,0.2218,-2.645935065241413,-0.7965836804989638,1.2556886797301128,0.18631164266176792,0.16391289552107804,-1.3361556888566641,HELLO
488594,0.0864,0.0,0.0,0.0,0.1595,-2.645935065241413,-1.1713104521361715,1.2216229917281574,0.12403674852538392,0.23067423026077266,-0.9437836320223035,HELLO
488614,0.0891,0.0,0.0,0.0,0.2367,-2.645935065241413,-1.172164043871108,1.2750981996382038,0.07931807454447011,0.11125606812075554,-0.6295562621373071,HELLO
488634,0.0845,0.0,0.0,0.0,0.1391,-2.645935065241413,-1.015956756377694,1.2438053001945468,0.1979053729531158,-0.1341623595843193,0.06253529021170373,HELLO
488654,0.0806,0.0,0.0,0.0,0.1679,-2.645935065241413,-1.3872691610751542,0.9459285865030281,0.07998057341826136,0.0068827138094019425,0.42358352738281724,HELLO
488674,0.0814,0.0,0.0,0.0,0.1445,-2.645935065241413,-0.938279908498455,1.1376471096768248,0.32874890052690103,0.4605776998925378,0.8828896409712746,HELLO
488694,0.0845,0.0,0.0,0.0,0.1535,-2.645935065241413,-1.2285010983769291,0.9526625015731819,0.4125550080615027,0.7403170954567513,1.4988148528759684,HELLO
488714,0.0884,0.0,0.0,0.0,0.1673,-2.608244652268428,-0.994616963004276,0.9704875708765309,0.28469272541977847,0.9039293805934681,1.6976386766332117,HELLO
488734,0.0918,0.0,0.0,0.0,0.223,-2.2410670807251543,-0.9160865233901005,0.8837389002668996,0.15351794840909763,0.9970191290333241,1.6976386766332117,HELLO
488754,0.0899,0.0,0.0,0.0,0.1721,-1.9071219163193514,-0.6480587186199798,0.8266986784961834,0.04917437578696516,1.0604894120604984,1.6976386766332117,HELLO
488774,0.0899,0.0,0.0,0.0,0.2224,-1.6574735895305475,-0.3842988725245419,0.7997630182155672,0.04387438479663446,1.1216089438644443,1.6976386766332117,HELLO
488794,0.0934,0.0,0.0,0.0,0.2092,-1.3004278494316246,-0.12053902642910408,0.8274909037985544,0.13728672600121028,1.1578105127021663,1.6976386766332117,HELLO
488814,0.0876,0.0,0.0,0.0,0.2415,-0.944597929106024,0.20467942458177443,0.8171919748677303,0.2793927344294481,1.1841389264023272,1.6976386766332117,HELLO
488834,0.0868,0.0,0.0,0.0,0.2056,-0.6147054972779616,0.46246412853265517,0.7237093891879454,0.46191117415895594,1.400878189184012,1.6976386766332117,HELLO
488854,0.0884,0.0,0.0,0.0,0.2092,-0.2556333908901687,0.33954691870177195,0.7233132765367598,0.555986014237323,1.7149385526073644,1.6976386766332117,HELLO
488874,0.088,0.0,0.0,0.0,0.1906,0.3174229956023133,0.5776990127491091,0.7684701187719102,0.510604841382618,1.7737073331880813,1.6976386766332117,HELLO
488894,0.0903,0.0,0.0,0.0,0.1565,0.8422518644196858,1.3109343130597264,0.6163628607166665,0.504642351518496,1.869617983095812,1.6976386766332117,HELLO
488914,0.0911,0.0,0.0,0.0,0.1954,1.4067975124989132,1.8034567441181968,0.24599753185819534,0.35160511167270153,2.0830661941649766,1.6976386766332117,HELLO
488934,0.0965,0.0,0.0,0.0,0.1565,1.4067975124989132,1.5217714715890887,0.21153573120505423,0.180349152797646,1.8851329411691211,1.6976386766332117,HELLO
488954,0.0946,0.0,0.0,0.0,0.1619,1.4067975124989132,1.1803347776144129,0.34977904646880437,0.19823662239001144,0.6716751597384739,1.6976386766332117,HELLO
488974,0.0953,0.0,0.0,0.0,0.199,1.4067975124989132,1.0830253198316293,0.4979251780121927,0.2661427569536218,-0.8003652562473286,1.6976386766332117,HELLO
488994,0.0887,0.0,0.0,0.0,0.2236,1.4067975124989132,0.8849920373263171,0.419494873077458,0.06043685664141742,-1.3372768356327605,1.6976386766332117,HELLO
489014,0.0872,0.0,0.0,0.0,0.1535,1.4067975124989132,1.1436303330121345,0.6397335071366129,-0.263525092642537,-0.7853204484186651,1.4819989075830673,HELLO
489034,0.0841,0.0,0.0,0.0,0.0912,1.4067975124989132,1.252890075084031,0.8560110146839125,-0.30658751943897267,-0.2366551129170899,0.9016839327692232,HELLO
489054,0.0853,0.0,0.0,0.0,0.1373,1.4067975124989132,0.9976661463379602,0.9455324738518422,-0.17011275143796117,-0.0500054657927325,0.4067675820899161,HELLO
489074,0.0864,0.0,0.0,0.0,0.1523,1.4067975124989132,0.62379296643569,0.9277074045484935,-0.06278793388376773,0.02944992555239692,-0.07660841397661582,HELLO
489094,0.0829,0.0,0.0,0.0,0.1439,1.4067975124989132,0.5512376689660716,0.8829466749645286,-0.017406761029062492,-0.051415916526669554,-0.49502869979409775,HELLO
489114,0.0826,0.0,0.0,0.0,0.1745,1.4067975124989132,0.49233983925543984,0.7783729350515487,0.002468205184677245,-0.12334890395746749,-0.8920168984735686,HELLO
489134,0.088,0.0,0.0,0.0,0.1547,1.4067975124989132,0.5162404078336674,0.7023193060239264,-0.029331740757306185,-0.05235621701596118,-1.2524056868096662,HELLO
489154,0.086,0.0,0.0,0.0,0.1924,1.4067975124989132,0.5759918292792349,0.7668856681671682,-0.15951276945730014,-0.16190122401841786,-1.5837787264050716,HELLO
489174,0.0857,0.0,0.0,0.0,0.1793,1.4067975124989132,0.8858456290612537,0.7134104602571214,-0.17806273792345703,-0.5836259934656439,-1.5996054984454493,HELLO
489194,0.0872,0.0,0.0,0.0,0.1415,1.4067975124989132,0.9703512108199863,0.6654808294636722,-0.118769088719134,-0.6936411507127463,-1.5996054984454493,HELLO
489214,0.0841,0.0,0.0,0.0,0.1936,1.4067975124989132,0.8670666108926467,0.6044794811811006,-0.1913127153992834,-0.3936852946287662,-1.5996054984454493,HELLO
489234,0.086,0.0,0.0,0.0,0.2212,1.4067975124989132,0.799632863832648,0.6282462402522324,-0.3585936810315911,-0.13087130787179924,-1.5996054984454493,HELLO
489254,0.0887,0.0,0.0,0.0,0.1499,1.4067975124989132,0.5657487284599948,0.6797408849063514,-0.5281933927221686,-0.3480807208981296,-1.5996054984454493,HELLO
489274,0.0961,0.0,0.0,0.0,0.2074,1.3220954016241402,0.6340360672549301,0.7221249385832029,-0.5977557744702569,-1.1271196762761158,-1.5996054984454493,HELLO
489294,0.1,0.0,0.0,0.0,0.217,0.5168174384271375,0.6630581862427782,0.6920203770931028,-0.4944059501588112,-1.9165019370363083,-1.5996054984454493,HELLO
489314,0.1004,0.0,0.0,0.0,0.1469,-0.39707375785330623,0.6178178242911329,0.7336122054675834,-0.3115562609924076,-2.2484280097561986,-1.5996054984454493,HELLO
489334,0.1035,0.0,0.0,0.0,0.2212,-1.1460187382197184,0.4368563764845544,0.6900398138371749,-0.09889412250539444,-2.0537858084728633,-1.5996054984454493,HELLO
489354,0.1073,0.0,0.0,0.0,0.1559,-1.5812822170690293,0.12017384282304186,0.7981785676108252,-0.007800527359088154,-1.6080833765487048,-1.5996054984454493,HELLO
489374,0.1077,0.0,0.0,0.0,0.2128,-1.7332596887342915,-0.15041473715188877,0.8999795189655063,-0.03065673850488886,-1.1656719963370663,-1.5996054984454493,HELLO
489394,0.119,0.0,0.0,0.0,0.2284,-1.8037772355869732,-0.25540652054910157,0.9895009781334361,-0.04523171372829772,-0.8257533694581984,-1.5996054984454493,HELLO
489414,0.107,0.0,0.0,0.0,0.1685,-1.8520047532620831,-0.654033860764536,1.063970156556316,-0.025356747514558166,-0.8304548719046558,-1.5996054984454493,HELLO
489434,0.1139,0.0,0.0,0.0,0.2008,-2.21350849919652,-0.7641471945713693,1.0829835638132215,0.029299409573225604,-0.8671265909870233,-1.5996054984454493,HELLO
489454,0.1213,0.0,0.0,0.0,0.2505,-2.645935065241413,-1.0091280224982,1.0881330282786332,0.12271175077780143,-0.6235887642605317,-1.3150533261361608,HELLO
489474,0.1221,0.0,0.0,0.0,0.202,-2.645935065241413,-1.306177946256168,1.1317054199090417,-0.011113021728044747,-0.17882663282566436,-0.6658259480631724,HELLO
489494,0.1209,0.0,0.0,0.0,0.2236,-2.645935065241413,-1.4043409957738877,1.187161191075016,-0.09028163714610733,0.14087553353343685,-0.33412318405025926,HELLO
489514,0.1201,0.0,0.0,0.0,0.2667,-2.645935065241413,-1.3821476106655337,1.2339024839149089,-0.19959395132167487,0.38018200805811675,0.038465407733629595,HELLO
489534,0.1151,0.0,0.0,0.0,0.2206,-2.6151342976505862,-1.3155674553404715,1.2964882828022224,-0.222781411904371,0.42437613105481636,0.44831285869590703,HELLO
489554,0.1217,0.0,0.0,0.0,0.2278,-2.4489722619632333,-1.0944871959918692,1.2703448478239776,-0.0776941585440724,0.2823907571718038,0.7777075517862653,HELLO
489574,0.1139,0.0,0.0,0.0,0.2272,-2.38534436049271,-1.030467815871617,1.3471907021539704,0.21513034367169,0.1126665188546926,1.1898630736710978,HELLO
489594,0.1201,0.0,0.0,0.0,0.2194,-2.275515307635947,-1.0944871959918692,1.2188502031698585,0.3158301724879703,0.24853993955731077,1.5304683969567239,HELLO
489614,0.1244,0.0,0.0,0.0,0.2523,-2.0461306437358444,-0.9246224407394675,1.1673555585157396,0.29198021303148286,0.5593092512681427,1.6976386766332117,HELLO
489634,0.1155,0.0,0.0,0.0,0.2709,-1.7616288167784737,-0.9015754638961766,1.0984319572094572,0.2598490176526042,0.8902950234987416,1.6976386766332117,HELLO
489654,0.1178,0.0,0.0,0.0,0.287,-1.3810772277286572,-0.6779344293427635,1.0580284667885331,0.25719902215743884,1.083056623803494,1.6976386766332117,HELLO
489674,0.119,0.0,0.0,0.0,0.3206,-1.1772247790683188,-0.43466078488580684,1.0635740439051304,0.356242603789241,1.2570122143224163,1.6976386766332117,HELLO
489694,0.1205,0.0,0.0,0.0,0.2254,-0.8254475913204585,-0.208458975127584,0.9522663889219963,0.4542924371103559,1.4714007258808728,1.6976386766332117,HELLO
489714,0.1213,0.0,0.0,0.0,0.3337,-0.4534067406838964,-0.09663845785087746,0.9395907840840595,0.560954755790758,1.580005432394038,1.6976386766332117,HELLO
489734,0.1159,0.0,0.0,0.0,0.3463,-0.1482359775800502,-0.046276545489612554,0.8702710701265918,0.6881545395586911,1.580005432394038,1.6976386766332117,HELLO
489754,0.1139,0.0,0.0,0.0,0.3044,0.3283653735622123,0.24650541959367242,0.6777603216504235,0.5311423064701488,1.7647744785398127,1.6976386766332117,HELLO
489774,0.1124,0.0,0.0,0.0,0.205,0.7579550268026868,0.15431751222050955,0.5510042732710542,0.2257303256523514,1.8047372493347,1.6976386766332117,HELLO
489794,0.1097,0.0,0.0,0.0,0.2373,1.1624177380611713,0.8738953447721404,0.33314231511901216,0.16246168320528054,1.6458264666444407,1.6976386766332117,HELLO
489814,0.1143,0.0,0.0,0.0,0.2631,1.4067975124989132,1.2332574651804875,0.41870264777508653,0.5119298391302004,1.3590348174105416,1.6976386766332117,HELLO
489834,0.1093,0.0,0.0,0.0,0.1679,1.4067975124989132,0.8627986522179637,0.19806790106474614,0.6225671510533505,0.932608545516858,1.6976386766332117,HELLO
489854,0.1046,0.0,0.0,0.0,0.1445,1.4067975124989132,0.6118426821465767,0.2170813083216517,0.2800552333032394,0.5856376649683042,1.6976386766332117,HELLO
489874,0.1023,0.0,0.0,0.0,0.2032,1.4067975124989132,1.0062020636873272,0.03566171407867869,0.07203058693276532,0.6458168962829581,1.6976386766332117,HELLO
489894,0.1046,0.0,0.0,0.0,0.22,1.4067975124989132,1.148751883421755,0.11369590636222819,0.12768049233123613,0.6721453099831196,1.5700353270576677,HELLO
489914,0.1039,0.0,0.0,0.0,0.1493,1.4067975124989132,0.9737655777597336,0.2598614746496889,0.20022411901138554,0.20857716876242283,1.1242479145870325,HELLO
489934,0.1035,0.0,0.0,0.0,0.1619,1.4067975124989132,0.7279311580979662,0.2075746046931989,0.06673059594243498,-0.26204322612795977,0.6158128627899032,HELLO
489954,0.1027,0.0,0.0,0.0,0.1966,1.4067975124989132,0.7834146208688516,0.1925223239481489,-0.1297003201366908,-0.30059554618891016,0.18750084444718512,HELLO
489974,0.1019,0.0,0.0,0.0,0.2122,1.4067975124989132,0.35576516166556915,0.38899419893617193,-0.15553777621455211,-0.37911063704474846,-0.34269601890546375,HELLO
489994,0.1019,0.0,0.0,0.0,0.1439,1.4067975124989132,0.2789419055212669,0.566056554016104,-0.21681892204024908,-0.6405141730677781,-0.7706783128306739,HELLO
490014,0.0988,0.0,0.0,0.0,0.2002,1.4067975124989132,0.3736905880992396,0.5438742455497145,-0.2068814389333793,-0.8671265909870233,-1.0980946594159848,HELLO
490034,0.1,0.0,0.0,0.0,0.1918,1.4067975124989132,0.08688376516051174,0.5941805522502766,-0.27346257574940674,-0.7039844560949527,-1.3351665156041408,HELLO
490054,0.0996,0.0,0.0,0.0,0.2128,1.4067975124989132,0.04420417841367715,0.6698380686267129,-0.48678721311021117,-0.40920025270207544,-1.5554224264993952,HELLO
490074,0.0961,0.0,0.0,0.0,0.1272,1.4067975124989132,0.2311407683648118,0.7320277548628414,-0.49473719959570683,-0.5845662939549353,-1.5996054984454493,HELLO
490094,0.1004,0.0,0.0,0.0,0.2032,1.4067975124989132,0.1645606130397506,0.7874835260288158,-0.3168562519827381,-0.9818432506805832,-1.5996054984454493,HELLO
490114,0.1,0.0,0.0,0.0,0.1942,1.4067975124989132,0.01603565116076566,0.7098454463964515,-0.32414373959444254,-0.9522237852679016,-1.5996054984454493,HELLO
490134,0.0973,0.0,0.0,0.0,0.1463,1.3743756518769905,-0.06932352233290352,0.7118260096523794,-0.5096434242560115,-0.7063352073181813,-1.5996054984454493,HELLO
490154,0.1008,0.0,0.0,0.0,0.1709,1.368701826268154,0.10480919159418217,0.7783729350515487,-0.6123307496936659,-0.8760594456352923,-1.5996054984454493,HELLO
490174,0.0992,0.0,0.0,0.0,0.2134,0.9768025860006646,0.2576021121478491,0.8148152989606174,-0.43709979757586226,-1.396985916702769,-1.5996054984454493,HELLO
490194,0.0996,0.0,0.0,0.0,0.1355,0.5581553107200887,0.1287097601724088,0.8853233508716416,-0.25623760503083254,-1.6692029083526507,-1.5996054984454493,HELLO
490214,0.0957,0.0,0.0,0.0,0.193,0.0876330584444369,-0.015547243031891271,0.9427596852935438,-0.22013141640920567,-1.704464176701081,-1.5996054984454493,HELLO
490234,0.0992,0.0,0.0,0.0,0.2194,-0.3366880424449753,-0.1640722049108762,0.9700914582253455,-0.2482876185453367,-1.5211055812892438,-1.5996054984454493,HELLO
490254,0.1011,0.0,0.0,0.0,0.1499,-0.5056869909367467,-0.0727378892726499,1.0271316799960617,-0.20091894906925756,-1.2700453506484202,-1.5996054984454493,HELLO
490274,0.1008,0.0,0.0,0.0,0.1409,-0.8226106785160402,-0.3271082262837833,1.1214064909782178,-0.006144280174610042,-1.2277318286303038,-1.5996054984454493,HELLO
490294,0.1046,0.0,0.0,0.0,0.2331,-1.3316338902802254,-0.4303928262111229,1.1091269987914663,0.16312418207907178,-1.143104784594071,-1.5996054984454493,HELLO
490314,0.105,0.0,0.0,0.0,0.2146,-1.6197831765575625,-0.5626995451263106,1.1079386608379098,0.18995538646762014,-0.9414103296410499,-1.5996054984454493,HELLO
490334,0.1062,0.0,0.0,0.0,0.229,-1.764465729582892,-0.756464868956939,1.0913019294881177,0.24494279299229935,-0.8041264582044946,-1.5996054984454493,HELLO
490354,0.117,0.0,0.0,0.0,0.2834,-2.098816167246469,-0.9792523117754154,1.071496296928841,0.2624990131477695,-0.6738948404376255,-1.4152895490585522,HELLO
490374,0.1194,0.0,0.0,0.0,0.2128,-2.36629651737733,-1.295934845436928,1.0097027233438982,0.20618660887550747,-0.40590920098955535,-1.189098598648156,HELLO
490394,0.1244,0.0,0.0,0.0,0.2319,-2.645935065241413,-0.873406936643266,1.2442014128457324,0.35856134984751037,-0.41296145465924144,0.020660289188204773,HELLO
490414,0.107,0.0,0.0,0.0,0.2349,-2.645935065241413,-1.871255674784258,0.5442703582009,-0.067425426000307,-0.5873871954228097,0.7140707392072472,HELLO
490434,0.1213,0.0,0.0,0.0,0.2325,-2.3282008311465714,-1.0910728290521219,0.8615565918005097,-0.2545813578463543,0.020987221148774066,0.33983352533581895,HELLO
490454,0.1174,0.0,0.0,0.0,0.2104,-2.0477517367669407,-1.1371667827387038,0.793029103145413,0.04254938704905197,0.5964511205951559,0.7078059752745977,HELLO
490474,0.1163,0.0,0.0,0.0,0.2613,-1.7863504855026897,-1.2617911760394602,0.9015639695702483,0.0253244163304774,0.780750016496285,1.404183945051211,HELLO
490494,0.1197,0.0,0.0,0.0,0.2691,-1.2619268899430915,-1.3462967577981928,0.960188641945707,-0.015088014970792952,0.555077899066331,1.62839654895656,HELLO
490514,0.124,0.0,0.0,0.0,0.2882,-1.1281867148776608,-1.1960646124493348,0.9657342190623043,0.010086942233277297,0.3181221757648795,1.689725290613023,HELLO
490534,0.1186,0.0,0.0,0.0,0.2583,-1.0475373365806284,-1.046686058835414,0.9411752346888014,0.07766182735999162,0.46951055454080687,1.6976386766332117,HELLO
490554,0.1209,0.0,0.0,0.0,0.2463,-0.869217103160054,-1.1422883331483233,1.002572695622559,0.09588054638925307,0.8155411346000693,1.6976386766332117,HELLO
490574,0.1225,0.0,0.0,0.0,0.2206,-0.768709335232094,-1.2165508140878158,0.9807864998073544,0.07799307679688725,1.0995118823660945,1.6976386766332117,HELLO
490594,0.1213,0.0,0.0,0.0,0.2643,-0.6742806661707443,-0.9749843531007324,0.980390387156169,0.0945555486416702,1.3270646007746312,1.6976386766332117,HELLO
490614,0.1217,0.0,0.0,0.0,0.2212,-0.4874496943369155,-0.7999980474387102,0.9887087528310651,0.15948043827321956,1.5391023611098587,1.6976386766332117,HELLO
490634,0.1163,0.0,0.0,0.0,0.2828,-0.3913999322444695,-0.6907383053668144,0.9253307286413801,0.25753027159433445,1.6848489369500372,1.6976386766332117,HELLO
490654,0.1256,0.0,0.0,0.0,0.2595,-0.1603941753132712,-0.5072160823554251,0.8742321966384471,0.28833646922563066,1.800976047377534,1.6976386766332117,HELLO
490674,0.1217,0.0,0.0,0.0,0.2176,0.10181762246652828,-0.2707711717779622,0.7229171638855744,0.24030530087576027,2.0351108692111115,1.6976386766332117,HELLO
490694,0.1205,0.0,0.0,0.0,0.2661,0.4843955778052148,0.02798593544987991,0.6254734516939335,0.21910533691443823,2.18743954847633,1.6976386766332117,HELLO
490714,0.1228,0.0,0.0,0.0,0.2254,0.9832869581250488,0.35405797819569595,0.5569459630388369,0.35061136336201465,2.111275208843721,1.6976386766332117,HELLO
490734,0.1228,0.0,0.0,0.0,0.2469,1.4067975124989132,0.7552460936159402,0.3695846790280809,0.5493610254994098,2.0073720047770127,1.6976386766332117,HELLO
490754,0.1252,0.0,0.0,0.0,0.2451,1.4067975124989132,0.642571984604297,0.26817984032458525,0.3873800508574328,1.7365654638610684,1.6976386766332117,HELLO
490774,0.1209,0.0,0.0,0.0,0.1972,1.4067975124989132,0.9268180323382151,0.08557190812805554,0.14589921136049758,0.7487797998603747,1.6976386766332117,HELLO
490794,0.1155,0.0,0.0,0.0,0.1906,1.4067975124989132,1.7095616532751607,0.11686480757171253,0.2840302265459872,-0.435058516157591,1.5410195783169753,HELLO
490814,0.1174,0.0,0.0,0.0,0.1978,1.4067975124989132,1.363857000625801,0.13627432747980336,0.3976487834011982,-0.9738506965216057,0.9303699570924073,HELLO
490834,0.1104,0.0,0.0,0.0,0.2284,1.4067975124989132,0.9660832521453033,0.1655866636675327,0.1581554405256367,-0.703044155605661,0.527446718897795,HELLO
490854,0.112,0.0,0.0,0.0,0.1805,1.4067975124989132,0.7612212357604973,0.25550423548664813,-0.18005023454483093,-0.21408790117409465,0.20299789207005461,HELLO
490874,0.1081,0.0,0.0,0.0,0.2313,1.4067975124989132,0.40954144096658046,0.3042260915824685,-0.3079125171865554,0.2508906907805392,-0.2694971982187175,HELLO
490894,0.1097,0.0,0.0,0.0,0.187,1.4067975124989132,0.05188650402810747,0.4622750394054949,-0.3132125081768859,0.5508465468645193,-0.664836774810649,HELLO
490914,0.1097,0.0,0.0,0.0,0.2248,1.4067975124989132,0.039936219738993216,0.4602944761495675,-0.27578132180767634,0.2828609074164494,-0.9622481994027442,HELLO
490934,0.1093,0.0,0.0,0.0,0.1912,1.4067975124989132,0.0322538941245629,0.4654439406149793,-0.260543847710476,-0.2531103714796907,-1.2843889553079293,HELLO
490954,0.1085,0.0,0.0,0.0,0.2032,1.4067975124989132,-0.10432078346530778,0.4373199423808066,-0.35759993272090407,-0.6616709340768363,-1.5996054984454493,HELLO
490974,0.1042,0.0,0.0,0.0,0.19,1.4067975124989132,-0.012132876092144885,0.4167220845191591,-0.44869352786721034,-0.9089699627604939,-1.5996054984454493,HELLO
490994,0.1046,0.0,0.0,0.0,0.2164,1.4067975124989132,0.14663518660608016,0.4012736911229234,-0.4785059771878197,-1.0020597112003498,-1.5996054984454493,HELLO
491014,0.1062,0.0,0.0,0.0,0.1733,1.4067975124989132,0.09712686597975186,0.4202870983798289,-0.50136218833362,-1.030268725879094,-1.5996054984454493,HELLO
491034,0.1077,0.0,0.0,0.0,0.2098,1.4067975124989132,0.15175673701569975,0.531594753362963,-0.5066621793239507,-1.2112765700677026,-1.5996054984454493,HELLO
491054,0.1128,0.0,0.0,0.0,0.2224,1.132427516985893,0.051032912293169926,0.5941805522502766,-0.45697476378960183,-1.4947771675890822,-1.5996054984454493,HELLO
491074,0.1039,0.0,0.0,0.0,0.1631,0.6525839797814382,0.0322538941245629,0.6528052246257352,-0.4308060582748447,-1.827643540798264,-1.5996054984454493,HELLO
491094,0.1015,0.0,0.0,0.0,0.2278,0.11235472716865287,0.022864385040259384,0.7165793614666057,-0.36919366301225215,-1.9846737225099402,-1.5996054984454493,HELLO
491114,0.1008,0.0,0.0,0.0,0.1954,-0.32858257728949464,-0.1350500859230281,0.8270947911473688,-0.3201687463516947,-1.9409497497578865,-1.5996054984454493,HELLO
491134,0.1011,0.0,0.0,0.0,0.2415,-0.5741781715005584,-0.3015004742356835,0.9292918551532354,-0.22675640514711887,-1.9700990649259225,-1.5996054984454493,HELLO
491154,0.1066,0.0,0.0,0.0,0.181,-1.0321369527852151,-0.40905303283770605,0.9166162503152986,-0.10816910673847296,-1.910389983855914,-1.5996054984454493,HELLO
491174,0.1042,0.0,0.0,0.0,0.1924,-1.2692218085830242,-0.4730724129579575,0.9411752346888014,-0.04788170922346307,-1.5681206057538175,-1.5996054984454493,HELLO
491194,0.1023,0.0,0.0,0.0,0.1978,-1.4742900770166847,-0.7948764970290906,1.0160405257628669,-0.01939425765043641,-1.198582513462268,-1.546190142809175,HELLO
491214,0.1097,0.0,0.0,0.0,0.226,-1.6826005315125374,-0.9254760324744041,1.0790224373013662,0.0326119039421822,-0.8172906650545751,-1.2946104122506732,HELLO
491234,0.112,0.0,0.0,0.0,0.2739,-1.8175565263512903,-0.9971777382090858,1.1059580975819825,0.128674240641923,-0.49006609478114216,-0.9497186715374452,HELLO
491254,0.1221,0.0,0.0,0.0,0.2427,-1.7839188459560456,-1.2156972223528792,1.2041940350759937,0.10913052386507943,-0.4533943756987748,-0.5998810645615992,HELLO
491274,0.1186,0.0,0.0,0.0,0.2745,-2.645935065241413,-0.8947467300166828,1.1023930837213125,0.36783633408058886,-0.8732385441674179,0.6171317604599346,HELLO
491294,0.1155,0.0,0.0,0.0,0.296,-2.394665645421513,-1.6979765525921098,0.9546430648291098,0.030624407320808095,-1.0533060878667353,0.7407784170253843,HELLO
491314,0.1201,0.0,0.0,0.0,0.2858,-2.199323935174429,-0.9391335002333916,0.9748448100395718,-0.06013793838860238,-0.6245290647498231,0.28378037435948206,HELLO
491334,0.1209,0.0,0.0,0.0,0.2553,-1.888074073203972,-0.9434014589080746,0.897602843058393,-0.039269223864175966,0.2170398731660462,0.7176977077998337,HELLO
491354,0.1217,0.0,0.0,0.0,0.2325,-1.58736131593564,-0.8631638358240259,1.134082095816155,-0.023369250893184246,0.5767048103200351,1.3745087474755031,HELLO
491374,0.1329,0.0,0.0,0.0,0.3038,-1.1857355174815734,-0.9775451283055422,1.1903300922845004,-0.05781919233033284,0.45728664818001796,1.6396071791518274,HELLO
491394,0.1221,0.0,0.0,0.0,0.2361,-1.0122785631542874,-0.7820726210050397,1.1927067681916133,-0.03430048231074107,0.2795698557039291,1.6976386766332117,HELLO
491414,0.1201,0.0,0.0,0.0,0.3026,-1.0029572782254847,-0.7078101400655482,1.168543896469296,0.08362431722411356,0.3670178012080365,1.6976386766332117,HELLO
491434,0.1217,0.0,0.0,0.0,0.2535,-0.8675960101289578,-0.7778046623303567,1.1523032777706892,0.14159296868085375,0.6650930563134339,1.6976386766332117,HELLO
491454,0.1194,0.0,0.0,0.0,0.2589,-0.7245345501347243,-0.8119483317278244,1.0940747180464165,0.17670540899179377,0.9542354567705621,1.6976386766332117,HELLO
491474,0.117,0.0,0.0,0.0,0.2565,-0.6244320554645383,-0.7504897268123828,1.063177931253945,0.2253990762154554,1.1098551877483007,1.6976386766332117,HELLO
491494,0.1178,0.0,0.0,0.0,0.2577,-0.4736704035725981,-0.45941494519897097,0.949889713014883,0.2581927704681257,1.2179897440168201,1.6976386766332117,HELLO
491514,0.1228,0.0,0.0,0.0,0.2906,-0.29778180969866797,-0.10688155867011757,0.8631410424052521,0.29198021303148286,1.6002218929138046,1.6976386766332117,HELLO
491534,0.1236,0.0,0.0,0.0,0.2541,0.06777466881350926,-0.3621054874161885,0.7862951880752593,0.19028663590451575,1.9707002856946452,1.6976386766332117,HELLO
491554,0.1194,0.0,0.0,0.0,0.2146,0.6298886773460927,0.024571568510132577,0.7193521500249045,0.06275560269968715,1.9128718056032197,1.6976386766332117,HELLO
491574,0.1217,0.0,0.0,0.0,0.1655,1.169712656701104,0.6622045945078406,0.5268414015487368,0.11376801598161852,1.823073108875884,1.6976386766332117,HELLO
491594,0.1244,0.0,0.0,0.0,0.2331,1.4067975124989132,0.5486768937612609,0.4943601641515229,0.15517419559357573,1.6218488041675083,1.6976386766332117,HELLO
491614,0.1213,0.0,0.0,0.0,0.1559,1.4067975124989132,0.6852515713511316,0.30581054218721043,0.12602424514675803,1.4535350165843346,1.6976386766332117,HELLO
491634,0.1225,0.0,0.0,0.0,0.1948,1.4067975124989132,0.7219560159534091,0.40642315558833514,0.018036928718772972,1.1761463722433496,1.6976386766332117,HELLO
491654,0.1248,0.0,0.0,0.0,0.2272,1.4067975124989132,0.7108593233992324,0.45989836349838203,0.026649414078060256,0.562600302980663,1.3933030392734511,HELLO
491674,0.1225,0.0,0.0,0.0,0.226,1.4067975124989132,0.642571984604297,0.45989836349838203,-0.0041567835532359395,0.11877847203508704,1.0843512600685807,HELLO
491694,0.1194,0.0,0.0,0.0,0.2301,1.4067975124989132,0.5341658342673379,0.5430820202473435,-0.11976283702982105,0.01722601919160806,0.610866996527285,HELLO
491714,0.1209,0.0,0.0,0.0,0.1493,1.4067975124989132,0.4411243351592383,0.6444868589508391,-0.1101566033598469,0.013464817234442058,0.11726954351800971,HELLO
491734,0.1112,0.0,0.0,0.0,0.2367,1.4067975124989132,0.15943906263013005,0.6654808294636722,-0.06875042374788949,-0.00016953986028437967,-0.31269109691224795,HELLO
491754,0.1135,0.0,0.0,0.0,0.2116,1.4067975124989132,0.005792550341525548,0.6262656769963045,-0.11081910223363832,0.0868082553991773,-0.62757791563226,HELLO
491774,0.1097,0.0,0.0,0.0,0.1876,1.4067975124989132,0.03481466932937364,0.585466073924195,-0.18866271990411804,0.22409212683573254,-0.9523564668775082,HELLO
491794,0.1139,0.0,0.0,0.0,0.2212,1.4067975124989132,-0.010425692622271691,0.5826932853658966,-0.21715017147714472,0.08492765442059405,-1.321977538903826,HELLO
491814,0.1163,0.0,0.0,0.0,0.2254,1.4067975124989132,0.051032912293169926,0.5149580220131709,-0.24066888149673646,-0.2761477334673319,-1.5996054984454493,HELLO
491834,0.1135,0.0,0.0,0.0,0.2451,1.4067975124989132,0.03481466932937364,0.5371403304795603,-0.2943312902738332,-0.6301708676855717,-1.5996054984454493,HELLO
491854,0.1143,0.0,0.0,0.0,0.2236,1.4067975124989132,0.0723727056665877,0.5914077636919782,-0.32811873283719056,-0.9846641521484576,-1.5996054984454493,HELLO
491874,0.1147,0.0,0.0,0.0,0.1781,1.4067975124989132,0.06042242137747439,0.6207200998797073,-0.3456749529926604,-1.1788362031871469,-1.5996054984454493,HELLO
491894,0.1135,0.0,0.0,0.0,0.1912,1.388965489156856,0.08773735689544833,0.7058843198845962,-0.35461868778884326,-1.2742767028502318,-1.5996054984454493,HELLO
491914,0.1101,0.0,0.0,0.0,0.205,0.9293856148411026,-0.06164119671847319,0.8591799158933968,-0.36819991470156527,-1.4562248475281319,-1.5996054984454493,HELLO
491934,0.1093,0.0,0.0,0.0,0.211,0.4138780309525332,-0.09493127438100427,0.8995834063143209,-0.33143122720614715,-1.687068617649189,-1.5996054984454493,HELLO
491954,0.1089,0.0,0.0,0.0,0.2152,-0.10608755877155049,-0.0770058479473329,0.9047328707797326,-0.25027511516671064,-1.714807482083287,-1.5996054984454493,HELLO
491974,0.1128,0.0,0.0,0.0,0.193,-0.4501645546217045,-0.17175453052530557,0.9209734894783393,-0.1568627739621348,-1.6264192360898886,-1.5996054984454493,HELLO
491994,0.1089,0.0,0.0,0.0,0.2152,-0.8112630272983674,-0.35954471221137774,0.9566236280850371,-0.09392538095195956,-1.4703293548675038,-1.5996054984454493,HELLO
492014,0.1182,0.0,0.0,0.0,0.1942,-1.157771662695165,-0.5319702426685893,0.9110706731987013,-0.005150531863923174,-1.3231723282933883,-1.5996054984454493,HELLO
492034,0.1101,0.0,0.0,0.0,0.2385,-1.406204169710647,-0.6489123103549164,0.9051289834309181,0.039568142116991,-1.0951494596402058,-1.4192462420686465,HELLO
492054,0.1081,0.0,0.0,0.0,0.2301,-1.590198228740058,-0.798290863968837,0.8524460008232426,0.07335558468034817,-0.803186157715203,-1.1093052896112523,HELLO
492074,0.1081,0.0,0.0,0.0,0.2451,-1.6667948744593502,-0.9971777382090858,0.825906453193812,0.044205634233530085,-0.5281482645974468,-0.7914509511336694,HELLO
492094,0.1155,0.0,0.0,0.0,0.2092,-1.6878690838636,-1.0313214076065536,0.8088736091928342,-0.004819282427027552,-0.28743133933882964,-0.5092068497469361,HELLO
492114,0.1104,0.0,0.0,0.0,0.2116,-1.6173515370109182,-1.101315929871362,0.80213969412268,-0.04622546203898477,-0.03919201016588043,-0.23388696112786783,HELLO
492134,0.1163,0.0,0.0,0.0,0.2667,-1.4536211408702089,-1.2156972223528792,0.8136269610070606,-0.04953795640794136,0.15356959013887192,-0.013631050232613368,HELLO
492154,0.1151,0.0,0.0,0.0,0.2409,-1.3587871985510855,-1.3505647164728758,0.8603682538469533,-0.07935040572855069,0.24901008980195646,0.1944250572148503,HELLO
492174,0.1194,0.0,0.0,0.0,0.2254,-1.3142071401959419,-1.3804404271956605,0.8833427876157142,-0.08398789784508977,0.34774164117756134,0.3704978961640508,HELLO
492194,0.1174,0.0,0.0,0.0,0.2439,-1.192219889605958,-1.464092417219456,0.9487013750613266,-0.040594221611758456,0.3891148627063858,0.5386573490930623,HELLO
492214,0.1174,0.0,0.0,0.0,0.1697,-1.169929860428386,-1.4666531924242663,0.969299232922974,-0.03065673850488886,0.37877155732417966,0.7503404251331125,HELLO
492234,0.1139,0.0,0.0,0.0,0.1972,-1.0017414584521627,-1.3992194453642675,0.9871243022263232,-0.05020045528173261,0.4008686188225295,1.0533571648228413,HELLO
492254,0.1116,0.0,0.0,0.0,0.2385,-0.6969759686060902,-1.3906835280149006,0.9506819383172544,-0.0657691788158287,0.4770329584551389,1.248883744405006,HELLO
492274,0.119,0.0,0.0,0.0,0.2655,-0.08015007027401255,-1.464092417219456,0.8987911810119499,-0.16978150200106554,0.7577126545086438,1.3118611081490084,HELLO
492294,0.1221,0.0,0.0,0.0,0.1421,0.7753817768869701,-1.7261450798450202,0.9126551238034433,-0.29068754646798095,0.9833847719385977,1.246245949064943,HELLO
492314,0.1225,0.0,0.0,0.0,0.1799,1.4067975124989132,-1.469213967629076,0.8068930459369068,-0.4255060672845142,1.1216089438644443,1.0038985021966613,HELLO
492334,0.1321,0.0,0.0,0.0,0.2086,1.4067975124989132,-0.9929097795344028,0.9027523075238052,-0.4957309479063939,1.052026707656875,0.48919868646688236,HELLO
492354,0.1349,0.0,0.0,0.0,0.2499,1.4067975124989132,-1.1166805811002227,1.1812195013072329,-0.26948758250665894,0.4079208724922153,-0.6348318528174329,HELLO
492374,0.1325,0.0,0.0,0.0,0.2439,1.4067975124989132,-1.6518825989055281,1.3170861406638699,-0.25391885897256283,-0.44023016884869404,-1.432764943186469,HELLO
492394,0.1325,0.0,0.0,0.0,0.2254,1.4067975124989132,-1.3667829594366732,1.4513683294157649,-0.2761125712445721,-1.073522548386502,-1.5996054984454493,HELLO
492414,0.1372,0.0,0.0,0.0,0.2727,0.16990352977256545,-1.0731474026184515,1.4913757071855034,-0.17210024805933508,-1.2921424121467697,-1.5996054984454493,HELLO
492434,0.1422,0.0,0.0,0.0,0.2918,-0.968103778056918,-1.0398573249559204,1.5238569445827168,-0.022706752019393,-1.132291328967219,-1.5996054984454493,HELLO
492454,0.1434,0.0,0.0,0.0,0.2146,-1.6947587292457584,-0.8990146886913668,1.478303989696381,0.03791189493251253,-0.8271638201921357,-1.3879224224053992,HELLO
492474,0.1356,0.0,0.0,0.0,0.2481,-2.645935065241413,-0.38173809731973213,1.8094541660874846,0.4655549179648082,-0.8525519334030054,-0.07594896514159998,HELLO
492494,0.1279,0.0,0.0,0.0,0.3044,-2.645935065241413,-1.1422883331483233,1.1194259277222902,0.2257303256523514,-0.8755892953906466,0.6929683764867438,HELLO
492514,0.1333,0.0,0.0,0.0,0.2757,-2.2601149238405336,-0.7931693135592174,1.1705244597252238,0.22109283353581197,-0.18728933722928773,0.10375084240018685,HELLO
492534,0.1391,0.0,0.0,0.0,0.287,-1.8102616077113578,-0.8290201664265582,0.9657342190623043,0.30986768262384873,0.35009239240078976,0.5323925851604128,HELLO
492554,0.1364,0.0,0.0,0.0,0.3367,-1.7563602644274112,-0.8896251796070632,1.0085143853903416,0.2820427299246131,0.3185923260095252,1.4120973310713998,HELLO
492574,0.1364,0.0,0.0,0.0,0.2745,-1.59141404851338,-0.9544981514622513,0.9752409226907572,0.2068491077492987,0.13523373059768812,1.6976386766332117,HELLO
492594,0.1356,0.0,0.0,0.0,0.3272,-1.464968792087882,-0.5217271418493492,0.9471169244565846,0.21877408747754223,0.14886808769241455,1.6976386766332117,HELLO
492614,0.1349,0.0,0.0,0.0,0.3379,-1.3754034021198207,-0.4167353584521364,0.8762127598943745,0.30920518375005746,0.5019509214213628,1.6976386766332117,HELLO
492634,0.1356,0.0,0.0,0.0,0.2583,-1.0904963019046758,-0.4816083303073244,0.8928494912441667,0.342661376876519,0.9302577942936295,1.6976386766332117,HELLO
492654,0.1411,0.0,0.0,0.0,0.2739,-0.5911996483270676,-0.2647960296334051,0.8571993526374689,0.3184801679831356,1.0736536189105792,1.6976386766332117,HELLO
492674,0.1426,0.0,0.0,0.0,0.2978,-0.19038439638854943,-0.1760224891999895,0.886115576174013,0.3625363430902582,0.977742969002849,1.6976386766332117,HELLO
492694,0.1399,0.0,0.0,0.0,0.3002,0.288648594300357,-0.13419649418809151,0.7470800356078917,0.2598490176526042,1.0426237027639602,1.6976386766332117,HELLO
492714,0.138,0.0,0.0,0.0,0.2763,0.6465048809148279,-0.1760224891999895,0.6730069698361972,0.16411793038975864,1.1733254707754754,1.6976386766332117,HELLO
492734,0.1519,0.0,0.0,0.0,0.299,1.4067975124989132,0.6903731217607522,0.6171550860190375,0.13662422712741903,1.3952363862482633,1.6976386766332117,HELLO
492754,0.1461,0.0,0.0,0.0,0.2691,1.4067975124989132,0.6707405118572076,0.5925961016455347,0.12072425415642733,1.5442740138009619,1.6976386766332117,HELLO
492774,0.1457,0.0,0.0,0.0,0.2852,1.4067975124989132,0.6400112093994872,0.46584005326616473,-0.015419264407688572,1.3510422632515637,1.6976386766332117,HELLO
492794,0.15,0.0,0.0,0.0,0.2715,1.4067975124989132,0.9140141563141652,0.5779399335516698,-0.11115035167053394,0.530159936100107,1.6976386766332117,HELLO
492814,0.1426,0.0,0.0,0.0,0.2074,1.4067975124989132,0.9993733298078343,0.6100250582976978,0.09687429469993994,-0.6931710004681007,1.431221347286856,HELLO
492834,0.1414,0.0,0.0,0.0,0.2218,1.4067975124989132,0.8969423216154313,0.5696215678767738,0.13828047431189716,-1.0274478244112197,1.0424762590450818,HELLO
492854,0.1407,0.0,0.0,0.0,0.2637,1.4067975124989132,0.5298978755926539,0.6936048276978448,-0.08166915178682023,-0.48395414160074773,0.5834998698741323,HELLO
492874,0.136,0.0,0.0,0.0,0.1631,1.4067975124989132,0.5051437152794898,0.8564071273350979,-0.25093761404050186,-0.04295321212304643,0.17035517473677617,HELLO
492894,0.1391,0.0,0.0,0.0,0.2469,1.4067975124989132,0.4402707434243017,0.9197851515247829,-0.2068814389333793,0.11877847203508704,-0.17354739272392838,HELLO
492914,0.1364,0.0,0.0,0.0,0.281,1.4067975124989132,0.3634474872799995,0.9118628985010723,-0.10452536293262076,0.15121883891564297,-0.6833013421910894,HELLO
492934,0.1337,0.0,0.0,0.0,0.202,1.4067975124989132,0.19699709896734413,0.9724681341324584,0.01174318941775541,-0.26439397735118847,-1.223719662486482,HELLO
492954,0.1383,0.0,0.0,0.0,0.2571,1.4067975124989132,-0.033472669465561704,0.9419674599911728,-0.006806779048401286,-0.11065484735203242,-1.4565051012470354,HELLO
492974,0.1387,0.0,0.0,0.0,0.2757,1.4067975124989132,0.06554397178709397,0.9542469521779242,-0.16646900763210895,0.27251760203424336,-1.5996054984454493,HELLO
492994,0.136,0.0,0.0,0.0,0.2559,1.4067975124989132,0.15602469569038369,1.0065338221344142,-0.19561895807892685,0.18648010726407355,-1.5996054984454493,HELLO
493014,0.1368,0.0,0.0,0.0,0.2206,1.4067975124989132,0.22345844275038146,0.9887087528310651,-0.19098146596238777,-0.17271467964526965,-1.5996054984454493,HELLO
493034,0.1383,0.0,0.0,0.0,0.2433,1.4067975124989132,0.13297771884709272,0.9257268412925657,-0.16646900763210895,-0.4317674644450709,-1.5996054984454493,HELLO
493054,0.1352,0.0,0.0,0.0,0.1793,1.2823786223622853,0.05700805443772705,0.8837389002668996,-0.23172514670055375,-0.3828718390019142,-1.5996054984454493,HELLO
493074,0.1333,0.0,0.0,0.0,0.1661,0.9354647137077133,-0.05225168763416968,0.8425431845436046,-0.3426937080605994,-0.40637935123420105,-1.5996054984454493,HELLO
493094,0.1321,0.0,0.0,0.0,0.2337,0.5569394909467668,0.10480919159418217,0.8350170441710795,-0.3416999597499125,-0.6470962764928185,-1.5996054984454493,HELLO
493114,0.1318,0.0,0.0,0.0,0.1978,0.1873302798568492,0.10566278332911877,0.9209734894783393,-0.21284392879750125,-1.0345000780809057,-1.5996054984454493,HELLO
493134,0.1283,0.0,0.0,0.0,0.2547,-0.47529149660369446,-0.13419649418809151,0.8817583370109717,-0.12340658083567325,-1.1943511612604565,-1.5996054984454493,HELLO
493154,0.131,0.0,0.0,0.0,0.1721,-0.8842122136976933,-0.19736228257340632,0.8263025658449978,-0.13036281901048205,-1.0754031493650849,-1.5996054984454493,HELLO
493174,0.1318,0.0,0.0,0.0,0.2349,-1.0690168192426521,-0.3783237303799848,0.865517718312365,-0.1383128054959779,-0.8055369089384317,-1.5996054984454493,HELLO
493194,0.1352,0.0,0.0,0.0,0.2062,-1.288674924956178,-0.5874537054394747,0.8841350129180852,-0.1277128235153169,-0.6367529711106121,-1.5996054984454493,HELLO
493214,0.1376,0.0,0.0,0.0,0.1942,-1.489285187554324,-0.7274427499690919,0.9102784478963304,-0.11247534941811661,-0.5290885650867385,-1.5996054984454493,HELLO
493234,0.1407,0.0,0.0,0.0,0.2158,-1.6404521127040381,-0.8716997531733928,0.9506819383172544,-0.07040667093236778,-0.5375512694903616,-1.3199991923987788,HELLO
493254,0.1442,0.0,0.0,0.0,0.2218,-1.8293094508267371,-1.049246834040224,0.9205773768271539,-0.04622546203898477,-0.5897379466460384,-1.0647924932476904,HELLO
493274,0.1461,0.0,0.0,0.0,0.2661,-2.645935065241413,-0.6822023880174475,1.3701652359227312,0.16875542250629774,-0.8060070591830776,-0.221027708845061,HELLO
493294,0.1399,0.0,0.0,0.0,0.2463,-2.645935065241413,-1.5127471461108477,0.7950096664013409,0.01638068153429486,-0.8647758397637946,0.7566051890657619,HELLO
493314,0.1465,0.0,0.0,0.0,0.226,-2.4137134885368923,-1.1328988240640199,0.8948300545000946,-0.1224128325249862,-0.11629665028778143,0.3912705344670463,HELLO
493334,0.1515,0.0,0.0,0.0,0.2673,-2.049372829798037,-0.9442550506430112,0.8496732122649439,0.06043685664141742,0.5348614385465644,0.7035195578469955,HELLO
493354,0.1577,0.0,0.0,0.0,0.287,-1.8682156835730446,-0.9049898308359239,0.9265190665949371,0.14490546304981033,0.7798097160069936,1.542008751569499,HELLO
493374,0.1542,0.0,0.0,0.0,0.2828,-1.5111699434741215,-1.015956756377694,0.9760331479931282,0.1737241640597328,0.7050558271083213,1.6976386766332117,HELLO
493394,0.1527,0.0,0.0,0.0,0.2296,-1.2449054131165822,-0.7265891582341553,0.9031484201749906,0.17306166518594154,0.6773169626742227,1.6976386766332117,HELLO
493414,0.1542,0.0,0.0,0.0,0.2559,-0.9133918882574236,-0.47563318816276823,0.896018392453651,0.23831780425438617,0.9011084791255934,1.6976386766332117,HELLO
493434,0.1538,0.0,0.0,0.0,0.2379,-0.5133871828344534,-0.5592851781865632,0.9229540527342672,0.26912400188568275,1.132892549735942,1.6976386766332117,HELLO
493454,0.1515,0.0,0.0,0.0,0.2493,-0.24955429202355797,-0.38856683119922586,0.8845311255692706,0.21148659986583782,1.2556017635884793,1.6976386766332117,HELLO
493474,0.1535,0.0,0.0,0.0,0.2828,-0.013685255999071331,-0.10688155867011757,0.8397703959853058,0.18796788984624604,1.3435198593372322,1.6976386766332117,HELLO
493494,0.1535,0.0,0.0,0.0,0.2649,0.38348253661948095,0.33698614349696215,0.6773642089992381,0.17769915730248065,1.6937817915983064,1.6976386766332117,HELLO
493514,0.1535,0.0,0.0,0.0,0.3062,0.6533945262969867,0.2738203551116464,0.5486275973639407,0.27177399738084773,2.012543657468116,1.6976386766332117,HELLO
493534,0.1515,0.0,0.0,0.0,0.2266,0.9123641380145934,0.6033067647972098,0.4820806719647715,0.4062612687604855,2.229282920249801,1.6976386766332117,HELLO
493554,0.1527,0.0,0.0,0.0,0.2667,1.4067975124989132,0.7467101762665732,0.36403910191148364,0.5165673312467399,2.1860290977423924,1.6976386766332117,HELLO
493574,0.1542,0.0,0.0,0.0,0.229,1.4067975124989132,0.84316604231442,0.31610947111803445,0.45760493147931247,1.8136701039829692,1.6976386766332117,HELLO
493594,0.1558,0.0,0.0,0.0,0.2559,1.4067975124989132,0.9430362753020123,0.17905449380784078,0.2578615210312301,1.1159671409286955,1.6976386766332117,HELLO
493614,0.1566,0.0,0.0,0.0,0.2146,1.4067975124989132,1.3322741064331431,0.006745490542135066,0.2253990762154554,0.4304880842352108,1.6976386766332117,HELLO
493634,0.1535,0.0,0.0,0.0,0.2541,1.4067975124989132,1.2298430982407402,0.13865100338691672,0.22241783128339482,-0.35795387603569023,1.3036179977113116,HELLO
493654,0.16,0.0,0.0,0.0,0.1942,1.4067975124989132,1.0625391181931492,0.20282125287897265,0.20949910324446408,-1.0970300606187886,0.7559457402307463,HELLO
493674,0.1566,0.0,0.0,0.0,0.2643,1.4067975124989132,0.5563592193756912,0.18460007092443825,-0.04125672048554988,-1.0185149697629505,0.5531652234634087,HELLO
493694,0.1519,0.0,0.0,0.0,0.184,1.4067975124989132,0.39588397320759394,0.27174485418525485,-0.3016187778855378,-0.16848332744345823,0.19112781303977164,HELLO
493714,0.1535,0.0,0.0,0.0,0.1948,1.4067975124989132,0.3293038178825318,0.4587100255448251,-0.42914981109036643,0.526398734142941,-0.1587097939360744,HELLO
493734,0.155,0.0,0.0,0.0,0.2343,1.4067975124989132,0.2217512592805083,0.5490237100151263,-0.32679373508960785,0.40604027151363253,-0.7238574455445569,HELLO
493754,0.1573,0.0,0.0,0.0,0.1984,1.4067975124989132,0.13297771884709272,0.511393008152501,-0.1863439738458485,-0.20938639872763729,-1.1317265500017875,HELLO
493774,0.1593,0.0,0.0,0.0,0.2218,1.4067975124989132,0.01006050901620948,0.42860546405472505,-0.20721268837027493,-0.5704617866155632,-1.4133112025535048,HELLO
493794,0.1531,0.0,0.0,0.0,0.2457,1.4067975124989132,-0.03603344467037244,0.39216310014565625,-0.37283740681810434,-0.49006609478114216,-1.5996054984454493,HELLO
493814,0.1581,0.0,0.0,0.0,0.1481,1.4067975124989132,0.08773735689544833,0.43850828033436307,-0.5023559366443071,-0.359834477014273,-1.5996054984454493,HELLO
493834,0.1546,0.0,0.0,0.0,0.2278,1.4067975124989132,0.19870428243721827,0.4959446147562653,-0.5116309208773856,-0.6014917027621818,-1.5996054984454493,HELLO
493854,0.1542,0.0,0.0,0.0,0.2511,1.4067975124989132,0.25845570388278666,0.5157502473155419,-0.4871184625471068,-1.0664702947168159,-1.5996054984454493,HELLO
493874,0.1523,0.0,0.0,0.0,0.2331,1.4067975124989132,0.20467942458177443,0.5387247810843027,-0.5023559366443071,-1.4374188377423023,-1.5996054984454493,HELLO
493894,0.1535,0.0,0.0,0.0,0.2002,0.7697079512781339,0.14236722793139622,0.5680371172720318,-0.5169309118677161,-1.5695310564877545,-1.5996054984454493,HELLO
493914,0.1523,0.0,0.0,0.0,0.1954,0.4527842636988401,0.1278561684374722,0.7165793614666057,-0.4688997435178455,-1.7035238762117895,-1.5996054984454493,HELLO
493934,0.1585,0.0,0.0,0.0,0.2433,0.02967898258275033,0.06554397178709397,0.6983581795120716,-0.3857561348570351,-1.8516212032751966,-1.5996054984454493,HELLO
493954,0.1597,0.0,0.0,0.0,0.1996,-0.29048689105873526,-0.04286217854986522,0.7272744030486151,-0.29896878239037245,-1.8248226393303897,-1.5996054984454493,HELLO
493974,0.1682,0.0,0.0,0.0,0.2535,-0.5891732820381977,-0.24857778666960784,0.8001591308667526,-0.22443765908884933,-1.6880089181384803,-1.5996054984454493,HELLO
493994,0.162,0.0,0.0,0.0,0.2002,-0.7180501780103398,-0.23406672717568475,0.8714594080801482,-0.15189403240869992,-1.4849040124515218,-1.5996054984454493,HELLO
494014,0.1604,0.0,0.0,0.0,0.2355,-0.8675960101289578,-0.48502269724707175,0.9277074045484935,-0.08398789784508977,-1.2103362695784112,-1.5996054984454493,HELLO
494034,0.1628,0.0,0.0,0.0,0.1894,-1.0365949586207295,-0.649765902089853,0.9807864998073544,-0.0760379113595941,-1.021806021475471,-1.5761950648023908,HELLO
494054,0.162,0.0,0.0,0.0,0.2583,-1.2663848957786061,-0.6378156178007397,1.0104949486462695,-0.03595672949521937,-0.8713579431888349,-1.365830886432372,HELLO
494074,0.1612,0.0,0.0,0.0,0.2343,-1.4783428095944249,-0.7931693135592174,1.0473334252065238,-0.008131776795984143,-0.7401860249326744,-1.0568791072275017,HELLO
494094,0.1713,0.0,0.0,0.0,0.2206,-1.8888846197195202,-0.6941526723065607,1.3420412376885587,0.06805559369001747,-0.7933130025776426,-0.6196645296120712,HELLO
494114,0.1674,0.0,0.0,0.0,0.2487,-2.4554566340876174,-0.8708461614384562,0.9292918551532354,0.2648177592060389,-1.1971720627283304,0.5145874666149881,HELLO
494134,0.16,0.0,0.0,0.0,0.2254,-2.0193826087227587,-1.2259403231721193,0.8635371550564376,0.1528554495353064,-0.8398578767975706,0.2745480906692617,HELLO
494154,0.1693,0.0,0.0,0.0,0.2787,-1.751496985334123,-0.8606030606192152,0.8282831291009253,0.142586716991541,0.011114066011213631,0.20398706532257846,HELLO
494174,0.1651,0.0,0.0,0.0,0.2691,-1.4078252627417434,-1.086804870377439,0.8702710701265918,0.08428681609790481,0.7990858760374687,0.6563689661433707,HELLO
494194,0.1628,0.0,0.0,0.0,0.2218,-1.0625324471182676,-0.9604732936068083,0.9843515136680243,0.009755692796381674,0.934018996250795,1.1216101192469698,HELLO
494214,0.1662,0.0,0.0,0.0,0.2745,-0.855843085653511,-0.9741307613657958,1.0687235083705422,0.11873675753505322,0.6589811031330389,1.194808939933716,HELLO
494234,0.1639,0.0,0.0,0.0,0.2571,-0.9778303362434947,-0.850359959799975,0.9918776540405494,0.27309899512843056,0.5066524238678202,1.2482242955699903,HELLO
494254,0.1647,0.0,0.0,0.0,0.2858,-1.0151154759587058,-0.7248819747642821,0.9542469521779242,0.35160511167270153,0.6933020709921781,1.4605668204450561,HELLO
494274,0.1631,0.0,0.0,0.0,0.2912,-0.8777278415733086,-0.6523266772946628,0.8825505623133432,0.3761175700029806,1.055787909614041,1.6976386766332117,HELLO
494294,0.1755,0.0,0.0,0.0,0.2978,-0.6633382882108454,-0.607939907077955,0.8516537755208716,0.39831128227498946,1.311549642701322,1.6976386766332117,HELLO
494314,0.1608,0.0,0.0,0.0,0.2038,-0.37235208912908985,-0.4269784592713765,0.7922368778430421,0.418186248488729,1.4347290067985052,1.6976386766332117,HELLO
494334,0.1697,0.0,0.0,0.0,0.2086,-0.09717154710052185,-0.22638440156125442,0.7193521500249045,0.4301112282169729,1.506191843984657,1.6976386766332117,HELLO
494354,0.1693,0.0,0.0,0.0,0.2607,0.03494753493381263,-0.21443411727214018,0.6365646059271285,0.44501745287727734,1.6458264666444407,1.6976386766332117,HELLO
494374,0.1628,0.0,0.0,0.0,0.2319,0.26797965815388136,0.05786164617266365,0.46623616591735023,0.4655549179648082,2.060498982421981,1.6976386766332117,HELLO
494394,0.1693,0.0,0.0,0.0,0.2104,0.8702157192060941,0.30369606583443104,0.26501093911510093,0.4625736730327472,2.344939880432652,1.6976386766332117,HELLO
494414,0.1639,0.0,0.0,0.0,0.2739,1.4067975124989132,0.38222650544860653,0.19291843659933436,0.3366988870123971,2.344939880432652,1.6976386766332117,HELLO
494434,0.1585,0.0,0.0,0.0,0.2427,1.4067975124989132,0.29430655675012757,0.05625957194032621,0.15484294615668012,2.344939880432652,1.6976386766332117,HELLO
494454,0.1569,0.0,0.0,0.0,0.2715,1.4067975124989132,0.6681797366523978,0.06774683882470665,0.09289930145719211,1.9171031578050315,1.6976386766332117,HELLO
494474,0.1566,0.0,0.0,0.0,0.1846,1.4067975124989132,0.7159808738088529,-0.05227529448450908,0.23997405143886463,0.9622280109295392,1.6890658417780073,HELLO
494494,0.1558,0.0,0.0,0.0,0.2373,1.4067975124989132,0.3446684691113925,-0.1255561349538323,0.2217553324096032,0.34115953775252067,1.3135097302365477,HELLO
494514,0.1581,0.0,0.0,0.0,0.2104,1.4067975124989132,0.2686988047020268,0.021005545984814133,0.03526189943734718,-0.2441775168314219,0.8726681840285309,HELLO
494534,0.1546,0.0,0.0,0.0,0.1948,1.4067975124989132,0.23540872703949572,0.04556453035831696,-0.060800437262393814,-0.48160339037751904,0.5561327432209795,HELLO
494554,0.1527,0.0,0.0,0.0,0.2463,1.4067975124989132,-0.0215223851764484,0.08596802077924103,-0.1823689806031005,-0.1901102386971621,0.3582980927162596,HELLO
494574,0.1554,0.0,0.0,0.0,0.2595,1.4067975124989132,-0.1674865718506226,0.2598614746496889,-0.25822510165220647,-0.006751643285324495,-0.0825434534917573,HELLO
494594,0.1562,0.0,0.0,0.0,0.2589,1.4067975124989132,0.0015245916668425628,0.32244727353700287,-0.27015008138045016,-0.14356536447723403,-0.4607373603732798,HELLO
494614,0.1527,0.0,0.0,0.0,0.2439,1.4067975124989132,0.09115172383519472,0.32007059762988976,-0.21085643217612715,-0.5662304344137515,-0.8580552834702585,HELLO
494634,0.1538,0.0,0.0,0.0,0.2415,1.4067975124989132,0.20809379152152177,0.24639364450938103,-0.14261904817562157,-0.8661862904977319,-1.2283358043315922,HELLO
494654,0.1535,0.0,0.0,0.0,0.2535,1.4067975124989132,0.00493895860658895,0.2174774209728372,-0.2204626658461013,-0.851611632913714,-1.4851911255702197,HELLO
494674,0.1558,0.0,0.0,0.0,0.2918,1.4067975124989132,0.1227346180278526,0.23728305353211374,-0.3456749529926604,-0.840798177286862,-1.5996054984454493,HELLO
494694,0.1542,0.0,0.0,0.0,0.2014,1.4067975124989132,0.14748877834101676,0.29313493734927354,-0.3738311551287914,-0.8685370417209606,-1.5996054984454493,HELLO
494714,0.1538,0.0,0.0,0.0,0.2541,1.4067975124989132,0.0706655221967145,0.35928575009725733,-0.46823724464405425,-1.0255672234326367,-1.5996054984454493,HELLO
494734,0.1527,0.0,0.0,0.0,0.2194,1.4067975124989132,0.23796950224430552,0.35809741214370044,-0.5341558825862903,-1.1487465875298197,-1.5996054984454493,HELLO
494754,0.1519,0.0,0.0,0.0,0.284,1.0996003831061965,0.13809926925671323,0.5014901918728626,-0.5788745565672043,-1.2380751340125098,-1.5996054984454493,HELLO
494774,0.1531,0.0,0.0,0.0,0.2236,0.7571444802871389,0.14322081966633282,0.616758973367852,-0.549062107246595,-1.5497847462126335,-1.5996054984454493,HELLO
494794,0.1511,0.0,0.0,0.0,0.2475,0.4065831123126005,0.16712138824456038,0.6318112541129023,-0.49506844903260266,-1.9964274786260836,-1.5996054984454493,HELLO
494814,0.1558,0.0,0.0,0.0,0.208,-0.09636100058497388,0.1235882097627892,0.634584042671201,-0.4102685931873139,-2.192950280888002,-1.5996054984454493,HELLO
494834,0.1585,0.0,0.0,0.0,0.2098,-0.532435025949833,-0.09663845785087746,0.6631041535565593,-0.318843748604112,-2.1017411334267284,-1.5996054984454493,HELLO
494854,0.1569,0.0,0.0,0.0,0.2667,-0.8534114461068667,-0.23577391064555794,0.7165793614666057,-0.22476890852574494,-1.8539719544984254,-1.5996054984454493,HELLO
494874,0.1554,0.0,0.0,0.0,0.2343,-1.1439923719308482,-0.45429339478935044,0.8152114116118029,-0.15090028409801304,-1.4853741626961674,-1.5996054984454493,HELLO
494894,0.1538,0.0,0.0,0.0,0.22,-1.3656768439332438,-0.6617161863789662,0.8536343387767991,-0.13268156506875178,-1.073052398141856,-1.5996054984454493,HELLO
494914,0.1566,0.0,0.0,0.0,0.2697,-1.5196806818873765,-0.873406936643266,0.9063173213844751,-0.13897530436976915,-0.7289024190611766,-1.3084588377860036,HELLO
494934,0.1581,0.0,0.0,0.0,0.2146,-1.6615263221082877,-0.994616963004276,0.9332529816650907,-0.13334406394254303,-0.5469542743832764,-1.0117068620289242,HELLO
494954,0.16,0.0,0.0,0.0,0.2769,-2.2901051449158123,-0.6403763930055495,1.30559887377949,0.0018057063108856324,-0.7147979117218045,-0.38786826410404135,HELLO
494974,0.1643,0.0,0.0,0.0,0.2248,-2.4813941225851557,-1.050954017510098,0.9403830093864304,0.11873675753505322,-1.0895076567044568,0.41105399951751825,HELLO
494994,0.1655,0.0,0.0,0.0,0.2529,-2.129211661579521,-1.1064374802809827,0.8425431845436046,0.11807425866126198,-0.7242009166147192,0.19772230138992897,HELLO
495014,0.1647,0.0,0.0,0.0,0.2361,-2.1036794463397572,-1.0902192373171853,0.8381859453805638,0.1511992023508279,0.1991741638695081,0.4318266378205137,HELLO
495034,0.167,0.0,0.0,0.0,0.3122,-1.864568224253078,-1.0833905034376916,0.8366014947758215,0.10714302724370534,1.0788252716016822,1.162825671435453,HELLO
495054,0.1659,0.0,0.0,0.0,0.2553,-1.3835088672753013,-1.0151031646427562,0.9047328707797326,0.09588054638925307,1.336467605667546,1.5842134770105059,HELLO
495074,0.1631,0.0,0.0,0.0,0.2529,-1.0118732898965135,-0.701834997920991,0.917804588268855,0.22639282452614265,1.1531090102557089,1.6976386766332117,HELLO
495094,0.1616,0.0,0.0,0.0,0.2541,-0.8469270739824821,-0.5609923616564374,0.8730438586848902,0.3893675474788069,1.0238176929781309,1.6976386766332117,HELLO
495114,0.1635,0.0,0.0,0.0,0.2553,-0.5668832528606257,-0.4730724129579575,0.8381859453805638,0.4476674483724427,1.054377458880104,1.6976386766332117,HELLO
495134,0.1628,0.0,0.0,0.0,0.2463,-0.28724470499654337,-0.48331551377719856,0.8049124826809789,0.4128862574983987,1.0778849711123908,1.6976386766332117,HELLO
495154,0.1624,0.0,0.0,0.0,0.308,-0.18592639055303511,-0.28442863953694963,0.718956037373719,0.3996362800225723,1.168623968329018,1.6976386766332117,HELLO
495174,0.1608,0.0,0.0,0.0,0.2278,-0.08663444239839727,-0.1256605768387246,0.5993300167156888,0.4529674393627734,1.4450723121807112,1.6976386766332117,HELLO
495194,0.1635,0.0,0.0,0.0,0.293,0.1925988322079115,0.016889242895702258,0.5719982437838871,0.5069610975767658,1.759602825848709,1.6976386766332117,HELLO
495214,0.162,0.0,0.0,0.0,0.2481,0.596656270208622,0.2208976675455717,0.4678206165220926,0.4735049044503042,2.045924324837963,1.6976386766332117,HELLO
495234,0.1538,0.0,0.0,0.0,0.2888,1.0157088187469716,0.3301574096174684,0.3850330724243166,0.4274612327218075,2.200133605081765,1.6976386766332117,HELLO
495254,0.1662,0.0,0.0,0.0,0.2655,1.4067975124989132,0.4300276426050607,0.2693681782781417,0.3380238847599796,2.1376036225438817,1.6976386766332117,HELLO
495274,0.1666,0.0,0.0,0.0,0.2804,1.4067975124989132,0.6784228374716379,0.1438004678523285,0.27144274794395207,1.778878985879185,1.6976386766332117,HELLO
495294,0.1666,0.0,0.0,0.0,0.3176,1.4067975124989132,0.9191357067237848,0.08517579547687006,0.25421777722537786,1.0637804637730188,1.6976386766332117,HELLO
495314,0.1616,0.0,0.0,0.0,0.2038,1.4067975124989132,0.8388980836397362,0.06378571231285134,0.2999301995169789,0.49160761603915665,1.6976386766332117,HELLO
495334,0.1612,0.0,0.0,0.0,0.1852,1.4067975124989132,0.7543925018810036,0.013479405612289002,0.20386786281723776,0.4224955300762331,1.6976386766332117,HELLO
495354,0.162,0.0,0.0,0.0,0.211,1.4067975124989132,1.1120474388194774,-0.001968987783946746,0.10217428569027064,0.4850255126141165,1.6016888711384227,HELLO
495374,0.1585,0.0,0.0,0.0,0.2325,1.4067975124989132,1.158994984240995,-0.08436041923053704,0.12138675303021858,0.6152571303809855,1.2089870898865542,HELLO
495394,0.1585,0.0,0.0,0.0,0.2451,1.4067975124989132,1.1939922453733993,-0.2372599025881519,0.11277426767093165,0.9034592303488224,0.744075661200463,HELLO
495414,0.162,0.0,0.0,0.0,0.1379,1.4067975124989132,0.9088926059045447,-0.1857652579340329,0.013068187165338266,0.71069763004407,0.1993709234774681,HELLO
495434,0.1593,0.0,0.0,0.0,0.1565,1.4067975124989132,0.49660779793012283,-0.18101190611980641,-0.10949410448605565,0.003591662096881624,-0.44853755692548863,HELLO
495454,0.1593,0.0,0.0,0.0,0.1697,1.4067975124989132,0.4590497615929088,-0.17308965309609578,-0.23371264332192768,-0.5516557768297338,-0.9467511517798743,HELLO
495474,0.1589,0.0,0.0,0.0,0.2361,1.4067975124989132,0.2567485204129125,-0.08554875718409372,-0.31288125873999023,-0.8666564407423776,-1.2735080495301698,HELLO
495494,0.1562,0.0,0.0,0.0,0.2032,1.4067975124989132,0.2738203551116464,-0.03048909866930488,-0.45697476378960183,-0.8995669578675791,-1.5115690789708491,HELLO
495514,0.1566,0.0,0.0,0.0,0.2343,1.4067975124989132,0.3617403038101263,0.06457793761522253,-0.6020620171499005,-0.7096262590307014,-1.5996054984454493,HELLO
495534,0.1562,0.0,0.0,0.0,0.208,1.4067975124989132,0.5153868160987298,0.1735089166912433,-0.7080618369565113,-0.699753103893141,-1.5996054984454493,HELLO
495554,0.1573,0.0,0.0,0.0,0.2367,1.4067975124989132,0.45051384424354185,0.2741215300923682,-0.7322430458498944,-1.1454555358172998,-1.5996054984454493,HELLO
495574,0.1562,0.0,0.0,0.0,0.217,1.4067975124989132,0.684397979616195,0.30739499279195265,-0.6457869428201274,-1.7279716889333676,-1.5996054984454493,HELLO
495594,0.1562,0.0,0.0,0.0,0.2553,1.2394196570382376,0.4428315186291115,0.3818641712148323,-0.5517121027417603,-2.0453231040692406,-1.5996054984454493,HELLO
495614,0.1558,0.0,0.0,0.0,0.2379,0.7154013347364135,0.437709968219491,0.44009273093910545,-0.4887747097315851,-2.116315791010747,-1.5996054984454493,HELLO
495634,0.1573,0.0,0.0,0.0,0.2044,0.2797325826293284,0.3779585467739226,0.565264328713733,-0.44008104250792324,-2.01006183572081,-1.5996054984454493,HELLO
495654,0.1538,0.0,0.0103,0.0,0.2385,-0.07447624466517627,0.14834237007595336,0.6032911432275441,-0.35461868778884326,-1.7716956616854214,-1.5996054984454493,HELLO
495674,0.1535,0.0,0.0,0.0,0.2074,-0.3245298447117543,-0.18199763134454663,0.7078648831405241,-0.32977498002166883,-1.5582474506162567,-1.5996054984454493,HELLO
495694,0.1562,0.0,0.0,0.0,0.2152,-0.558777787705145,-0.2613816626936587,0.7771845970979918,-0.2983062835165812,-1.3410380375899265,-1.5996054984454493,HELLO
495714,0.1538,0.0,0.0,0.0,0.2559,-0.7537142246944548,-0.45002543611466744,0.8492770996137583,-0.29598753745831147,-1.0603583415364213,-1.5996054984454493,HELLO
495734,0.1546,0.0,0.0,0.0,0.2254,-0.892317678853174,-0.5413597517528929,0.8770049851967455,-0.27313132631251114,-0.7632233869203155,-1.5996054984454493,HELLO
495754,0.1597,0.0,0.0,0.0,0.2679,-0.9632404989636295,-0.7317107086437757,0.9724681341324584,-0.20953143442854466,-0.49147654551507947,-1.4466133687217995,HELLO
495774,0.1546,0.0,0.0,0.0,0.2739,-0.9482453884259904,-0.8102411482579512,1.0128716245533824,-0.12175033365119496,-0.3194015559747396,-1.2570218286547765,HELLO
495794,0.155,0.0,0.0,0.0,0.2236,-0.9599983129014374,-0.8896251796070632,1.0604051426956462,-0.02668174526214084,-0.3443195189409638,-1.0476468235372813,HELLO
495814,0.1573,0.0,0.0,0.0,0.2571,-1.0552375284783349,-0.9664484357513655,1.0362422709733288,0.04917437578696516,-0.4359988166468826,-0.8227747707969167,HELLO
495834,0.1569,0.0,0.0,0.0,0.2415,-1.5966826008644426,-0.6659841450536502,1.270740960475163,0.21380534592410752,-0.6532082296732129,-0.388527712939057,HELLO
495854,0.1566,0.0,0.0,0.0,0.2948,-1.9614285328610719,-1.1072910720159193,0.9784098239002416,0.3214614129151966,-0.9174326671641173,0.41336207044007345,HELLO
495874,0.1612,0.0,0.0,0.0,0.2565,-1.763655183067344,-1.3181282305452824,0.8702710701265918,0.19658037520553331,-0.6738948404376255,0.26102938955143923,HELLO
495894,0.1569,0.0007,0.0,0.0,0.2673,-1.775002834285017,-0.9647412522814923,0.7858990754240733,0.07468058242793066,0.060949991943661484,0.3589575415512753,HELLO
495914,0.1635,0.0016,0.0,0.0,0.2918,-1.4297100186615412,-0.7863405796797236,0.8698749574754059,0.0253244163304774,0.7111677802887156,0.8067233005269576,HELLO
495934,0.16,0.0025,0.0,0.0,0.3427,-1.2870538319250817,-0.6762272458728903,0.9364218828745751,0.09654304526304432,0.7417275461906889,1.3672548102903301,HELLO
495954,0.1639,0.0,0.0,0.0,0.2918,-1.078743377429229,-0.5072160823554251,0.9292918551532354,0.1684241730694021,0.5094733253356948,1.6976386766332117,HELLO
495974,0.1635,0.0025,0.0,0.0,0.326,-1.1476398312508145,-0.35954471221137774,0.8373937200781923,0.26978650075947397,0.40604027151363253,1.6976386766332117,HELLO
495994,0.1635,0.0003,0.0,0.0,0.3415,-1.0552375284783349,-0.29552533209112636,0.7898602019359287,0.36353009140094544,0.6636826055794962,1.6976386766332117,HELLO
496014,0.1701,0.0003,0.0,0.0,0.2655,-0.7379085676412674,-0.2605280709587221,0.7712429073302091,0.38075506211951965,0.9899668753636378,1.6976386766332117,HELLO
496034,0.1682,0.0,0.0,0.0,0.2577,-0.2203746174638277,-0.21272693380226698,0.7977824549596393,0.33073639714827513,1.1498179585431885,1.6976386766332117,HELLO
496054,0.167,0.0029,0.0,0.0,0.2619,0.08641723867111495,-0.15980424623619227,0.7597556404458286,0.23699280650680368,1.2438480074723361,1.6976386766332117,HELLO
496074,0.1705,0.0,0.0,0.0,0.3152,0.39888292041489387,-0.1657793883807494,0.7074687704893386,0.11906800697194922,1.4027587901625949,1.6976386766332117,HELLO
496094,0.1701,0.0,0.0,0.0,0.3056,0.8783211843615747,0.12017384282304186,0.6413179577413548,0.06805559369001747,1.5701322772564776,1.6976386766332117,HELLO
496114,0.1697,0.0,0.0,0.0,0.2954,1.2637360525046797,0.2208976675455717,0.5549653997829095,0.12734924289434052,1.5861173855744324,1.6976386766332117,HELLO
496134,0.1728,0.0,0.0,0.0,0.29,1.4067975124989132,0.39929834014734034,0.5327830913165196,0.304567691633518,1.4328484058199225,1.6976386766332117,HELLO
496154,0.1701,0.0,0.0,0.0,0.2218,1.4067975124989132,0.4385635599544276,0.5688293425744028,0.3946675384691372,0.8804218683611812,1.6976386766332117,HELLO
496174,0.1709,0.0,0.0,0.0,0.2451,1.4067975124989132,0.6280609251103739,0.6092328329953268,0.29496145796354384,0.22221152585714926,1.6976386766332117,HELLO
496194,0.1662,0.0,0.0,0.0,0.2421,1.4067975124989132,0.8423124505794826,0.4464305333580737,0.2167865908561685,0.057188789986495486,1.6976386766332117,HELLO
496214,0.1678,0.0,0.0,0.0,0.2373,1.4067975124989132,1.3561746750113708,0.4393005056367345,0.2078428560599856,0.09997246224925754,1.212284334061633,HELLO
496234,0.1674,0.0,0.0,0.0,0.3032,1.4067975124989132,0.9037710554949251,0.41870264777508653,0.31251767811901404,-0.00816209401926181,0.5877862873017344,HELLO
496254,0.167,0.0007,0.0,0.0,0.305,1.4067975124989132,0.5119724491589834,0.3343306530725688,0.15252420009841075,0.07317389830445087,0.1443069457536547,HELLO
496274,0.1682,0.0,0.0,0.0,0.2541,1.4067975124989132,0.14578159487114262,0.3339345404213831,-0.07405041473822017,0.22409212683573254,-0.3895168861915807,HELLO
496294,0.1612,0.0007,0.0,0.0,0.3631,1.4067975124989132,0.052740095763044066,0.35096738442236103,-0.14526904367078672,0.09715156078138343,-0.8676172915779864,HELLO
496314,0.1628,0.0,0.0,0.0,0.2421,1.4067975124989132,0.04847213708836014,0.36403910191148364,-0.16580650875831754,-0.15814002206125186,-1.1590936766549402,HELLO
496334,0.167,0.0,0.0,0.0,0.2984,1.4067975124989132,0.13468490231696592,0.3945397760527692,-0.222781411904371,-0.36923748190718775,-1.4663968337722715,HELLO
496354,0.1674,0.0003,0.0,0.0,0.2487,1.4067975124989132,0.19102195682278794,0.40919594414663396,-0.3377249665071645,-0.5934991486032044,-1.5996054984454493,HELLO
496374,0.169,0.0,0.0,0.0,0.2888,1.4067975124989132,0.3216214922681015,0.46187892675430947,-0.446043532372045,-0.7721562415685843,-1.5996054984454493,HELLO
496394,0.1662,0.0012,0.0,0.0,0.2798,1.4067975124989132,0.4394171516893651,0.5078279942918312,-0.43676854813896665,-1.0015895609557042,-1.5996054984454493,HELLO
496414,0.1628,0.0,0.0,0.0,0.2373,1.4067975124989132,0.5384337929420209,0.5363481051771893,-0.4255060672845142,-1.1520376392423402,-1.5996054984454493,HELLO
496434,0.1639,0.0003,0.0,0.0,0.2391,1.346006523832808,0.4197845417858206,0.6044794811811006,-0.3496499462354084,-1.4604561997299434,-1.5996054984454493,HELLO
496454,0.1624,0.0,0.0,0.0,0.2505,0.6914902125277456,0.3890552393281002,0.5989339040645033,-0.2887000498466071,-1.7406657455388026,-1.5996054984454493,HELLO
496474,0.1612,0.0016,0.0,0.0,0.2763,0.1666613437103731,0.335278960027088,0.6262656769963045,-0.2678313353221806,-1.77404641290865,-1.5996054984454493,HELLO
496494,0.1608,0.0,0.0,0.0,0.2751,-0.27994978635661066,0.28491704766582404,0.7050920945822252,-0.19363146145755294,-1.687068617649189,-1.5996054984454493,HELLO
496514,0.1581,0.0,0.0,0.0,0.287,-0.646316811384336,0.05786164617266365,0.7019231933727409,-0.10485661236951638,-1.540381741319719,-1.5996054984454493,HELLO
496534,0.1585,0.0033,0.0,0.0,0.296,-0.7622249631077095,-0.04798372895948575,0.7625284290041274,-0.06775667543720262,-1.223500476428492,-1.5996054984454493,HELLO
496554,0.1597,0.0,0.0,0.0,0.287,-0.9178498940929379,-0.4030778906931489,0.802535806773866,-0.03396923287384545,-0.9475222828214442,-1.5996054984454493,HELLO
496574,0.1585,0.0,0.0,0.0,0.2948,-0.9790461560168169,-0.5080696740903627,0.7680740061207247,-0.04788170922346307,-0.699753103893141,-1.5366281347014468,HELLO
496594,0.1608,0.0,0.0,0.0,0.3242,-1.032947499300763,-0.6967134475113705,0.8239258899378845,-0.04821295866035869,-0.503230301631223,-1.3157127749711766,HELLO
496614,0.1616,0.0012,0.0,0.0,0.2517,-1.1950568024103763,-0.8802356705227597,0.8611604791493243,-0.03430048231074107,-0.4247152107753849,-1.15447753480983,HELLO
496634,0.16,0.0003,0.0,0.0,0.299,-1.3514922799111528,-0.9783987200404788,0.8548226767303561,-0.018731758776644982,-0.3936852946287662,-0.9662048924128385,HELLO
496654,0.1628,0.0,0.0,0.0,0.2984,-2.1527175105304153,-0.5951360310539051,1.314709464756757,0.1511992023508279,-0.5920886978692671,-0.37566846065625037,HELLO
496674,0.162,0.0,0.0,0.0,0.281,-2.3934498256481906,-1.151677842232627,0.917804588268855,0.1955866268948461,-0.9705596448090854,0.532062860742905,HELLO
496694,0.1639,0.0,0.0,0.0,0.2649,-1.9877712946163841,-1.245572933075663,0.8682905068706639,0.15053670347703665,-0.7171486629450332,0.21420852226532228,HELLO
496714,0.1666,0.0055,0.0,0.0,0.3457,-2.1592018826548,-1.1738712273409813,0.7653012175624259,0.14656171023428882,0.17472635114792984,0.3243364777129495,HELLO
496734,0.1728,0.0064,0.0,0.0,0.3295,-1.777029200573887,-1.1252164984495896,0.8366014947758215,0.05149312184523452,1.1216089438644443,0.805734127274434,HELLO
496754,0.1709,0.0072,0.0,0.0,0.2661,-1.4540264141279833,-0.8981610969564302,0.9467208118053991,0.11939925640884484,1.3604452681444785,1.4539723320948987,HELLO
496774,0.169,0.0042,0.0,0.0,0.3331,-1.1780353255838667,-0.7837798044749138,0.9538508395267383,0.29297396134217013,1.1112656384822381,1.6976386766332117,HELLO
496794,0.169,0.0038,0.0,0.0,0.326,-1.079148650687003,-0.6113542740177023,0.8583876905910258,0.4350799697704076,0.94013094943119,1.6976386766332117,HELLO
496814,0.1705,0.0025,0.0,0.0,0.3427,-1.0657746331804598,-0.4901442476566913,0.7625284290041274,0.5437297850721838,1.1187880423965697,1.6976386766332117,HELLO
496834,0.1705,0.0033,0.0,0.0,0.3319,-0.9745881501813025,-0.3202794924042905,0.7118260096523794,0.5814922208782889,1.4859753834648906,1.6976386766332117,HELLO
496854,0.1705,0.0025,0.0,0.0,0.29,-0.4659702116748914,0.02115720157038619,0.6579546890911471,0.5672484950917757,1.8197820571633636,1.6976386766332117,HELLO
496874,0.1713,0.0038,0.0,0.0,0.3188,9.403476524605973e-05,0.2191904840756985,0.5272375141999223,0.47648614938236517,2.126320016672384,1.6976386766332117,HELLO
496894,0.1713,0.0003,0.0,0.0,0.3128,0.5573447642045407,0.4419779268941749,0.39057864954091387,0.37744256775056306,2.2739471934911455,1.6976386766332117,HELLO
496914,0.1717,0.0,0.0,0.0,0.2787,1.2527936745447805,0.8107295563868255,0.30739499279195265,0.3930112912846591,2.110805058599075,1.6976386766332117,HELLO
496934,0.1755,0.0007,0.0,0.0,0.3319,1.4067975124989132,1.1794811858794763,0.16043719920212093,0.43806121470246856,1.6232592549014457,1.6976386766332117,HELLO
496954,0.1771,0.0012,0.0,0.0,0.2721,1.4067975124989132,1.171798860265046,0.06893517677826333,0.3883737991681197,0.7417275461906889,1.6976386766332117,HELLO
496974,0.179,0.0038,0.0,0.0,0.2361,1.4067975124989132,1.3211774138789665,0.005557152588578385,0.4118925091877114,-0.2629835266172514,1.6976386766332117,HELLO
496994,0.1748,0.0025,0.0,0.0,0.2625,1.4067975124989132,1.0676606686027696,-0.055840308345178905,0.4079175159449636,-0.617476811080137,1.1743660260482285,HELLO
497014,0.1693,0.0029,0.0,0.0,0.2804,1.4067975124989132,0.692933896965562,-0.01028735345884285,0.21314284705031628,-0.19575204163291085,0.7536376693081911,HELLO
497034,0.1655,0.0,0.0,0.004,0.3367,1.4067975124989132,0.09029813210025812,0.226191899298919,-0.011444271164940735,0.019106620170190804,0.23300281406327042,HELLO
497054,0.1674,0.0064,0.0,0.0,0.2481,1.4067975124989132,-0.5558708112468169,0.22817246255484666,-0.15454402790386526,0.1643830457657237,-0.05682494892614383,HELLO
497074,0.1693,0.0055,0.0,0.0,0.3254,1.4067975124989132,-0.6233045583068156,0.4646517153126083,-0.1929689625837617,-0.0626995223981673,-0.5665788983933047,HELLO
497094,0.169,0.0068,0.0,0.0,0.3248,1.4067975124989132,-0.7803654375351665,0.48643791112781226,-0.17706898961276998,-0.3386777160052148,-0.955323986635079,HELLO
497114,0.1724,0.0055,0.0,0.0,0.2373,1.4067975124989132,-0.6429371682103593,0.5244647256416234,-0.2545813578463543,-0.3109388515711165,-1.2781241913752799,HELLO
497134,0.1724,0.009,0.0,0.0,0.3301,1.4067975124989132,-0.48331551377719856,0.6401296197877984,-0.2896937981572941,-0.546013973893985,-1.5996054984454493,HELLO
497154,0.1713,0.0064,0.0,0.0,0.3266,1.4067975124989132,-0.4474646609098567,0.6250773390427481,-0.31917499804100763,-1.028858275145157,-1.5996054984454493,HELLO
497174,0.1721,0.002,0.0,0.0,0.2511,1.4067975124989132,-0.18967995695897696,0.6528052246257352,-0.39370612134253097,-1.2916722619021237,-1.5996054984454493,HELLO
497194,0.1717,0.0012,0.0,0.0,0.2751,1.4067975124989132,0.0023781834017791597,0.7407422331889231,-0.4639310019644106,-1.4802025100050644,-1.5996054984454493,HELLO
497214,0.1701,0.002,0.0,0.0,0.2715,1.4067975124989132,0.22260485101544486,0.8179842001701013,-0.4722122378868021,-2.0890470768212936,-1.5996054984454493,HELLO
497234,0.1666,0.0003,0.0,0.0,0.2679,0.6566367123591785,0.6494007184837908,0.6619158156030024,-0.4351123009544884,-2.356562566024718,-1.5996054984454493,HELLO
497254,0.1713,0.0016,0.0,0.0,0.3044,-0.12675649491802612,0.6835443878812584,0.4781195454529162,-0.24696262079775402,-2.356562566024718,-1.5996054984454493,HELLO
497274,0.1713,0.0033,0.0,0.0,0.2721,-0.8825911206665972,0.5196547747734138,0.3775069320517915,-0.05483794739827187,-2.356562566024718,-1.5996054984454493,HELLO
497294,0.1794,0.0038,0.0,0.0,0.3014,-1.7117802060722676,0.21406893366607796,0.16320998776041956,-0.006144280174610042,-2.356562566024718,-1.5996054984454493,HELLO
497314,0.1891,0.0,0.0,0.0,0.3278,-1.91401156170151,-0.1768760809349261,0.304622204233654,-0.12373783027256888,-1.5878669160289383,-1.5996054984454493,HELLO
497334,0.1953,0.0085,0.0,0.0,0.2727,-1.4860430014921315,-0.3561303452716314,0.40681926823952064,-0.20787518724406637,-0.5808050919977696,-1.2777944669577719,HELLO
497354,0.1969,0.0033,0.0,0.0,0.2852,-1.1772247790683188,-0.5678210955359302,0.5474392594103843,-0.2413313803705279,-0.10078169221447199,-1.0618249734901197,HELLO
497374,0.1984,0.002,0.0,0.0,0.3116,-1.1071125054734112,-0.7974372722339004,0.6983581795120716,-0.2913500453417724,0.08774855588846868,-0.8534391416251483,HELLO
497394,0.1965,0.0,0.0,0.0,0.3092,-1.057263894767205,-0.8443848176554188,0.79421744109897,-0.31818124973032075,0.12677102619406472,-0.7307816583122221,HELLO
497414,0.1969,0.0012,0.0,0.0,0.2709,-1.0900910286469017,-0.9596197018718717,0.8674982815682929,-0.3049312722544944,0.1949428116676964,-0.6467019318477163,HELLO
497434,0.1984,0.0,0.0,0.0,0.3505,-1.178440598841641,-0.9963241464741492,0.9455324738518422,-0.26286259376874577,0.31248037282913077,-0.5491035042653879,HELLO
497454,0.1949,0.0,0.0,0.0,0.3751,-1.624241182393077,-0.8298737581614948,1.1633944320038843,-0.09558162813643785,0.33974908701858364,-0.27741058423890613,HELLO
497474,0.1941,0.0,0.0,0.0,0.302,-1.9156326547326061,-0.9749843531007324,1.0865485776738915,0.16378668095286303,0.19259206044446797,0.19244671070980296,HELLO
497494,0.1934,0.0,0.0,0.0,0.323,-1.6359941068685238,-1.0432716918956677,1.0829835638132215,0.25521152553606474,0.2955549640218845,0.24124592450096724,HELLO
497514,0.1988,0.0,0.0,0.0,0.3631,-1.6927323629568884,-0.9920561877994662,1.0378267215780712,0.4082487653818592,0.4864359633480536,0.4723827411739812,HELLO
497534,0.1945,0.0,0.0,0.0,0.3685,-1.737312421312032,-0.8785284870528866,1.0390150595316276,0.5430672861983926,0.7290334895852538,0.9349860989375176,HELLO
497554,0.1976,0.0003,0.0,0.0,0.3709,-1.5257597807539869,-0.8017052309085843,0.9938582172964773,0.6858357935004213,0.7892127208999083,1.2399811851322935,HELLO
497574,0.1996,0.0,0.0,0.0,0.3547,-1.4961748329364823,-0.55757799471669,0.8667060562659219,0.8259543053072851,0.837638196098419,1.5558571771048293,HELLO
497594,0.1988,0.0,0.0,0.0,0.3595,-1.4297100186615412,-0.43551437662074344,0.7086571084428951,0.8994916802981213,1.0191161905316735,1.6976386766332117,HELLO
497614,0.1926,0.0007,0.0,0.0,0.3559,-1.2878643784406296,-0.3552767535366948,0.6104211709488833,0.9084354150943043,1.286631679735098,1.6976386766332117,HELLO
497634,0.1957,0.0016,0.0,0.0047,0.3792,-1.0138996561853837,-0.11968543469416748,0.5593226389459502,0.8312542962976158,1.4431917112021284,1.6976386766332117,HELLO
497654,0.1914,0.0046,0.0,0.0,0.3984,-0.7034603407304747,0.06639756352203056,0.5149580220131709,0.7173044900055092,1.564960624565374,1.6976386766332117,HELLO
497674,0.1934,0.002,0.0,0.0,0.3798,-0.28278669916102905,0.3472292443162022,0.4900029249884821,0.7033920136558915,1.7511401214450864,1.6976386766332117,HELLO
497694,0.191,0.0,0.0,0.0,0.3948,0.23515252427418473,0.5785526044840457,0.42820935140353955,0.7451294427047443,1.8898344436155785,1.6976386766332117,HELLO
497714,0.1965,0.0,0.0,0.0,0.3607,0.9699129406185059,0.707444956459486,0.253919784881906,0.6288608903543681,2.076484090739936,1.6976386766332117,HELLO
497734,0.2019,0.0,0.0,0.0,0.2894,1.4067975124989132,0.8568235100734065,0.1739050293424288,0.24825528736125593,1.9039389509549507,1.6976386766332117,HELLO
497754,0.2011,0.0,0.0,0.0,0.3577,1.4067975124989132,1.1154618057592238,0.33551899102612526,-0.008463026232879766,0.706936428086904,1.6976386766332117,HELLO
497774,0.2015,0.0012,0.0,0.0,0.3631,1.4067975124989132,0.9097461976394813,0.18143116971495393,0.28999271641010915,-0.8328056231278845,1.6976386766332117,HELLO
497794,0.1949,0.0,0.0,0.0,0.3236,1.4067975124989132,0.24821260306354562,0.1651905510163472,0.17273041574904593,-1.0702314966739817,1.3118611081490084,HELLO
497814,0.1938,0.0012,0.0,0.0,0.3026,1.4067975124989132,0.17309653038911751,0.23530249027618608,-0.18833147046722243,-0.3447896691856095,1.0681947636106954,HELLO
594694,0.1565,0.0098,0.0168,0.0557,0.0,-1.091712121677998,2.878128738403491,0.5815049474123397,0.04221813761215635,0.43283883545843976,-0.22696274836020267,EAT
594714,0.1698,0.0175,0.0463,0.0735,0.0,-0.981883068821235,2.878128738403491,0.6072522697393994,0.015718182660503614,0.7295036398298995,-0.3179666875923738,EAT
594734,0.1885,0.0208,0.0556,0.0943,0.0,-0.8485481670135784,2.878128738403491,0.6195317619261508,0.010086942233277297,0.941541400165127,-0.4445808639153943,EAT
594754,0.2072,0.031,0.0711,0.1025,0.0,-0.6985970616371864,2.878128738403491,0.659143027044704,0.02399941858289491,1.08681782576066,-0.6137294900969297,EAT
594774,0.2194,0.0658,0.078,0.1122,0.0,-0.5308139329187367,2.878128738403491,0.6662730547660431,0.014724434349816379,1.24666890894021,-0.7789214232683705,EAT
594794,0.2367,0.0788,0.1032,0.14,0.0,-0.34317241456935954,2.878128738403491,0.678552546952795,-0.01840050933974936,1.4812738810184332,-1.0080798934363375,EAT
594814,0.2647,0.1058,0.1156,0.1159,0.0,-0.2438804664147217,2.878128738403491,0.6821175608134644,-0.029331740757306185,1.9152225568264483,-1.3305503737590305,EAT
594834,0.288,0.1217,0.1516,0.1434,0.0,-0.18268420449084277,2.878128738403491,0.6468635348579526,-0.20257519625373585,2.344939880432652,-1.5996054984454493,EAT
594854,0.2999,0.1422,0.164,0.1527,0.0,-0.021385447896778,2.878128738403491,0.6658769421148576,-0.34037496200232986,2.344939880432652,-1.5996054984454493,EAT
594874,0.3179,0.1532,0.1853,0.1616,0.0,0.0758801339689899,2.878128738403491,0.5157502473155419,-0.3393812136916428,2.344939880432652,-1.5996054984454493,EAT
594894,0.3312,0.1683,0.2105,0.1872,0.0,0.24690544874963172,2.878128738403491,0.5363481051771893,-0.38343738879876554,2.344939880432652,-1.5996054984454493,EAT
594914,0.3419,0.1896,0.2078,0.1943,0.0,0.38550890290835094,2.878128738403491,0.4729700809875044,-0.35958742934227816,2.344939880432652,-1.5996054984454493,EAT
594934,0.3531,0.2051,0.231,0.1883,0.0,0.4450840718011339,2.878128738403491,0.2919465993957169,-0.37184365850741746,2.344939880432652,-1.5996054984454493,EAT
594954,0.3646,0.2149,0.236,0.2069,0.0,0.6760898287323323,2.878128738403491,0.20123680227423046,-0.4321310560224274,2.344939880432652,-1.5996054984454493,EAT
594974,0.3631,0.2198,0.2581,0.224,0.0,0.9723445801651502,2.878128738403491,0.1826195076685106,-0.5533683499262386,2.344939880432652,-1.5996054984454493,EAT
594994,0.3649,0.2219,0.2562,0.2325,0.0,1.0631257899065334,2.878128738403491,0.02298610924074179,-0.6126619991305615,2.126320016672384,-1.5996054984454493,EAT
595014,0.3728,0.2223,0.2662,0.2448,0.0,1.0841999993107831,2.878128738403491,-0.07643816620682642,-0.5659558285282735,1.68014743450358,-1.5996054984454493,EAT
595034,0.3868,0.2268,0.2748,0.2466,0.0,0.9703182138762799,2.878128738403491,-0.1818041314221776,-0.5112996714404898,1.3552736154533755,-1.5996054984454493,EAT
595054,0.3955,0.2341,0.2643,0.244,0.0,0.870620992463868,2.878128738403491,-0.3200474466859277,-0.5705933206448128,1.30402723878699,-1.5996054984454493,EAT
595074,0.394,0.2386,0.2864,0.2362,0.0,0.9350594404499394,2.553763879127548,-0.32717747440726735,-0.7786179670152867,1.324243699306757,-1.5996054984454493,EAT
595094,0.3915,0.2386,0.2957,0.2492,0.0,1.1150007669016098,2.5153522510553974,-0.3473792196177294,-0.8859427845694802,1.1728553205308296,-1.5996054984454493,EAT
595114,0.3868,0.2403,0.2922,0.2377,0.0,1.219155994149536,2.5759572642359023,-0.41273780706334195,-0.7603992479860254,0.8921756244773243,-1.5996054984454493,EAT
595134,0.3829,0.2435,0.293,0.234,0.0,1.0983845633328746,2.3582913718270464,-0.6353531170296101,-0.6828868797524411,0.7295036398298995,-1.5996054984454493,EAT
